   ax     ay       az      t      gx        gy    gz

start
+00448; -00288; +17376; +00000; +00034; +00082; +00107;
+00084; +00400; +19676; +00000; -00128; +00068; +00108;
+00280; +00776; +20028; +00000; -00178; +00062; +00111;
+00872; -00044; +19932; +00000; -00075; +00029; +00101;
+00300; +01256; +18136; +00000; +00110; -00015; +00105;
+00488; -00472; +18312; +00000; +00216; -00065; +00104;
-01032; +01360; +18400; +00000; +00178; -00112; +00115;
+01736; +00156; +19088; +00000; +00096; -00202; +00116;
+00388; -00900; +19028; +00000; +00024; -00239; +00105;
+01412; +00216; +18168; +00000; +00015; -00239; +00117;
+02700; -00020; +19936; +00000; +00055; -00212; +00095;
-03452; +02040; +16700; +00000; +00178; -00101; +00127;
+00280; +01444; +16428; +00000; +00311; -00111; +00155;
+03292; -01884; +17948; +00000; +00242; -00131; +00121;
-00920; +01028; +19604; +00000; +00038; -00062; +00144;
+00836; +00460; +19456; +00000; +00016; -00092; +00150;
+03364; -00708; +17356; +00000; +00215; -00177; +00110;
+01444; -00656; +16976; +00000; +00367; -00077; +00102;
+00256; +01156; +18608; +00000; +00331; +00120; +00111;
+00676; +02384; +18616; +00000; +00350; +00222; +00125;
+00872; +01024; +18148; +00000; +00472; +00201; +00117;
+00688; +01352; +16684; +00000; +00517; +00214; +00125;
+03252; -00540; +16908; +00000; +00417; +00160; +00118;
+01180; +01608; +17800; +00000; +00251; +00140; +00115;
+00892; +00384; +18820; +00000; +00227; +00179; +00115;
+02660; +00240; +18804; +00000; +00346; +00239; +00081;
-00628; +01376; +15904; +00000; +00505; +00224; +00076;
+00948; +00684; +16848; +00000; +00477; +00194; +00073;
-00216; +00052; +18440; +00000; +00283; +00251; +00063;
+00968; +00736; +19232; +00000; +00154; +00285; +00076;
+00384; +00820; +17508; +00000; +00216; +00172; +00072;
-00504; +01248; +16344; +00000; +00360; +00135; +00082;
-00452; +01584; +19760; +00000; +00358; +00206; +00083;
-00124; -00356; +18460; +00000; +00315; +00212; +00090;
-00396; +00724; +20204; +00000; +00255; +00090; +00098;
-00808; +01340; +23964; +00000; +00153; +00168; +00111;
-00688; +00320; +23248; +00000; +00219; +00237; +00100;
+02164; -00216; +18604; +00000; +00449; +00090; +00094;
+00364; -01504; +15144; +00000; +00535; -00103; +00076;
-03012; +01424; +16540; +00000; +00308; -00112; +00103;
-00408; +01796; +19152; +00000; +00100; +00076; +00102;
+03900; +01488; +17764; +00000; +00261; +00094; +00052;
-01020; +01792; +08552; +00000; +00657; -00182; +00059;
-00076; -00408; +06116; +00000; +00572; -00329; +00094;
+02688; -01760; +15916; +00000; -00061; -00235; +00058;
+00300; +02980; +23168; +00000; -00688; +00235; +00078;
-00364; +01412; +17288; +00000; -00554; +00292; +00083;
+03044; +00712; +13384; +00000; -00044; -00019; +00047;
+01768; +01496; +18516; +00000; +00028; +00071; +00000;
-01080; +00964; +19112; +00000; -00282; +00246; +00033;
-00280; -00012; +20704; +00000; -00466; +00106; +00040;
+02392; -00752; +22444; +00000; -00422; +00038; +00044;
+00092; +01144; +19432; +00000; -00269; +00078; +00027;
+00480; +01660; +15100; +00000; -00015; -00104; +00044;
+00160; +00452; +16548; +00000; +00072; -00357; +00026;
-00872; +00116; +22308; +00000; -00167; -00126; +00042;
+00008; -00332; +21372; +00000; -00339; +00066; +00038;
+00488; +00168; +15124; +00000; -00104; -00238; +00028;
+00164; +00792; +16088; +00000; +00089; -00539; +00013;
+00800; +00224; +23328; +00000; -00118; -00237; +00016;
+00096; +00372; +20944; +00000; -00237; +00019; +00019;
+00988; +01000; +17016; +00000; +00046; -00260; +00020;
-00212; +01088; +18840; +00000; +00202; -00328; +00008;
+00412; -00064; +22312; +00000; +00019; -00058; +00011;
-00456; -00268; +20616; +00000; -00087; -00035; +00007;
-00376; +00680; +17252; +00000; +00063; -00225; +00018;
+01672; -00096; +20376; +00000; +00153; -00254; -00019;
-00912; +01724; +18604; +00000; +00142; -00173; -00017;
+01408; +00520; +17848; +00000; +00188; -00246; -00018;
+00188; +00836; +18712; +00000; +00248; -00279; -00029;
+01348; +00620; +19596; +00000; +00257; -00162; -00020;
+00972; -00056; +18068; +00000; +00233; -00164; -00044;
-00464; +00424; +15772; +00000; +00239; -00228; -00021;
+02148; -01136; +17656; +00000; +00172; -00209; -00031;
+01612; -00452; +20124; +00000; +00073; -00082; -00044;
-00408; +01652; +18084; +00000; +00135; -00055; -00037;
+01140; +01576; +17732; +00000; +00369; -00141; -00036;
+00880; +00140; +17904; +00000; +00486; -00144; -00047;
+00152; -00416; +17816; +00000; +00349; -00105; -00023;
+00436; -00520; +19724; +00000; +00107; -00056; -00018;
+00004; +00064; +20344; +00000; +00093; -00047; -00021;
+00344; +00208; +17368; +00000; +00341; -00155; -00026;
+00712; +00028; +14960; +00000; +00500; -00257; -00034;
+00476; +00848; +18920; +00000; +00359; -00220; -00035;
+00280; +00392; +20556; +00000; +00181; -00086; -00018;
+00968; -00256; +18236; +00000; +00250; -00087; -00009;
+00516; +00372; +15376; +00000; +00424; -00186; +00004;
+00808; -00416; +16028; +00000; +00392; -00185; +00008;
+01056; -00332; +17264; +00000; +00174; -00116; +00015;
+00660; -00816; +16960; +00000; +00026; -00111; +00010;
+00512; +00224; +17024; +00000; +00028; -00074; +00001;
+02148; +02252; +18980; +00000; +00117; +00014; -00024;
+00552; +03236; +17832; +00000; +00233; +00084; -00027;
+01256; +00988; +16428; +00000; +00309; +00115; -00008;
+00660; +00472; +17108; +00000; +00162; +00230; +00003;
+00700; -00100; +17296; +00000; -00068; +00320; +00026;
+00740; -01740; +17328; +00000; -00245; +00283; +00038;
+00776; -00752; +16968; +00000; -00342; +00278; +00035;
+00556; +00880; +18316; +00000; -00378; +00313; +00041;
+00376; +00124; +17812; +00000; -00360; +00198; +00036;
+01820; -00248; +18892; +00000; -00376; +00104; +00025;
+01748; +00404; +19640; +00000; -00440; +00131; +00016;
-00624; -00504; +18296; +00000; -00441; +00090; +00032;
+00648; -01180; +17848; +00000; -00466; +00092; +00049;
+00080; -02948; +18744; +00000; -00526; +00125; +00032;
-00224; -00780; +17896; +00000; -00590; +00137; +00056;
+00836; -00632; +20608; +00000; -00631; +00074; +00029;
+00536; +02128; +19820; +00000; -00474; +00135; +00030;
+02668; -01084; +17640; +00000; -00147; +00068; +00014;
-00480; +00392; +16848; +00000; -00071; +00058; +00031;
+01648; -00904; +19488; +00000; -00311; +00219; +00051;
+00664; -02908; +18980; +00000; -00443; +00246; +00042;
+00228; -02132; +16460; +00000; -00388; +00168; +00070;
-00468; -01520; +17752; +00000; -00414; +00186; +00040;
+00132; -00204; +20132; +00000; -00403; +00263; +00038;
+00876; +00416; +20328; +00000; -00183; +00153; +00005;
+01312; -01876; +15132; +00000; +00140; -00059; +00020;
+00320; -01972; +16388; +00000; +00068; -00173; +00006;
+00896; -00948; +20588; +00000; -00234; +00069; +00044;
+01144; -00572; +20188; +00000; -00185; +00141; +00025;
-01376; +00268; +14420; +00000; +00299; -00044; +00069;
+02776; -01540; +19524; +00000; +00472; -00053; +00037;
-00320; +02640; +24092; +00000; +00367; +00129; +00015;
+01440; +00912; +20368; +00000; +00523; -00045; +00019;
+03412; -03444; +22160; +00000; +00784; -00266; -00022;
-00544; -01524; +24276; +00000; +00786; -00027; -00007;
+01536; +00840; +24088; +00000; +00781; +00116; +00014;
-00204; +00816; +19672; +00000; +01036; -00082; -00014;
+01064; +01428; +17392; +00000; +01345; -00231; -00013;
+02036; -01116; +19204; +00000; +01369; -00207; -00036;
-00328; -00448; +20364; +00000; +01149; -00131; -00026;
-00836; +01016; +18444; +00000; +01001; -00050; -00029;
+00848; -01636; +15460; +00000; +01168; -00126; -00044;
+01660; -01896; +12524; +00000; +01272; -00196; -00072;
+01040; -00064; +15124; +00000; +01031; -00078; -00076;
+00764; +01384; +16684; +00000; +00795; +00046; -00070;
+01312; +01876; +16664; +00000; +00787; +00022; -00066;
+01736; +00136; +16156; +00000; +00894; +00085; -00073;
+02084; -00820; +15556; +00000; +00871; +00229; -00073;
-00104; +00584; +16212; +00000; +00639; +00248; -00051;
+01892; -00552; +20308; +00000; +00301; +00342; -00057;
+00928; -00004; +18216; +00000; +00233; +00458; -00076;
+01572; -00296; +12832; +00000; +00527; +00261; -00066;
-00436; +00808; +13704; +00000; +00558; +00172; -00061;
-00172; +01228; +14404; +00000; +00305; +00309; -00034;
+01604; -01220; +13204; +00000; +00135; +00233; -00028;
+00588; -00356; +11652; +00000; +00099; +00061; -00013;
-01276; +00152; +15116; +00000; -00026; +00171; +00005;
+00456; +01004; +15168; +00000; -00176; +00338; +00004;
-00716; +00036; +13352; +00000; -00173; +00193; -00003;
+01348; -00244; +14188; +00000; -00225; +00117; +00005;
+00240; -01136; +19840; +00000; -00442; +00208; -00004;
-02496; +01820; +18924; +00000; -00593; +00309; +00046;
+02016; -01308; +18708; +00000; -00454; +00156; +00046;
+00636; -01672; +16804; +00000; -00359; +00061; +00037;
-01616; +00196; +18956; +00000; -00550; +00121; +00066;
+00604; +00224; +20584; +00000; -00789; +00179; +00073;
+01740; -00724; +19756; +00000; -00708; +00152; +00056;
-01160; -01700; +16364; +00000; -00453; +00036; +00052;
-00188; +00012; +20188; +00000; -00497; +00041; +00065;
+01640; -01456; +22020; +00000; -00737; +00103; +00048;
+00444; -00964; +19736; +00000; -00757; +00036; +00050;
+00624; -01532; +18856; +00000; -00649; -00039; +00055;
+00312; -00984; +19852; +00000; -00618; -00016; +00046;
+01464; -00560; +20996; +00000; -00611; -00069; +00036;
+00492; -00720; +22328; +00000; -00562; -00105; +00019;
-00552; -00052; +20064; +00000; -00450; -00143; +00029;
+01816; -01836; +20484; +00000; -00430; -00204; +00025;
+00272; -01264; +23244; +00000; -00506; -00210; +00013;
-00036; -00308; +23112; +00000; -00461; -00158; +00033;
+01940; -01236; +20208; +00000; -00257; -00226; +00015;
-00404; -00680; +18652; +00000; -00113; -00326; +00006;
+00944; -00556; +21980; +00000; -00195; -00245; +00012;
+00904; -02228; +22920; +00000; -00223; -00146; -00005;
+00952; +00460; +19520; +00000; -00018; -00180; +00009;
+03028; -01124; +19160; +00000; +00133; -00265; -00010;
-00308; -00212; +20544; +00000; +00045; -00179; -00001;
+01196; -00836; +21604; +00000; -00056; -00062; +00018;
+01216; -01224; +20280; +00000; +00111; -00054; -00001;
+00712; -00032; +16192; +00000; +00399; -00161; +00013;
+02800; -01504; +20044; +00000; +00333; -00173; -00012;
-00312; +00828; +20540; +00000; +00094; -00024; +00001;
+01896; -01192; +18408; +00000; +00157; -00067; -00002;
+00720; +00336; +15604; +00000; +00386; -00172; -00009;
+01460; -00984; +17176; +00000; +00424; -00091; -00004;
+00532; -00004; +17900; +00000; +00239; +00017; -00009;
+01264; -00496; +17836; +00000; +00122; +00058; +00001;
+00792; -00508; +16648; +00000; +00165; +00031; -00010;
+00384; -00940; +17036; +00000; +00212; +00034; -00006;
+01612; -00464; +17308; +00000; +00147; +00035; -00012;
+01416; -00304; +17292; +00000; +00062; +00047; -00019;
-00068; +00352; +17452; +00000; +00091; +00034; -00007;
-00144; -00316; +17924; +00000; +00139; +00068; +00005;
+00724; -00788; +17200; +00000; +00130; +00122; +00015;
-00264; -01068; +15968; +00000; +00071; +00050; +00022;
+01024; -00520; +18480; +00000; -00042; +00037; +00034;
+00140; +00628; +20872; +00000; -00107; +00109; +00027;
+00676; -00588; +18328; +00000; +00067; +00083; +00033;
+00172; -01080; +14320; +00000; +00227; -00030; +00031;
+00832; -00700; +17976; +00000; +00102; +00007; +00044;
+00460; +00456; +21036; +00000; -00123; +00106; +00043;
-00456; +00212; +18928; +00000; -00038; +00090; +00068;
+02976; -01424; +15396; +00000; +00183; -00024; +00050;
+00116; -01256; +16364; +00000; +00184; -00045; +00043;
-00152; -00072; +18040; +00000; -00048; -00011; +00053;
+00632; -00676; +20528; +00000; -00210; +00013; +00048;
+00968; +00432; +18588; +00000; -00126; +00027; +00035;
+01340; -00768; +17204; +00000; +00103; -00036; +00039;
-00432; -00088; +16720; +00000; +00157; -00123; +00031;
+01748; -00708; +18916; +00000; -00056; -00104; +00055;
+00984; -02100; +21520; +00000; -00258; -00058; +00034;
+00048; +00264; +16840; +00000; -00145; -00134; +00060;
+02260; -01160; +18448; +00000; +00057; -00250; +00024;
-01764; +01060; +17868; +00000; +00131; -00206; +00025;
+02448; -01068; +20608; +00000; +00106; -00155; +00030;
+00272; -01216; +16996; +00000; +00098; -00200; +00023;
+00928; -01564; +18072; +00000; +00046; -00202; +00041;
+01340; +00196; +20972; +00000; -00054; -00100; +00024;
+01164; -00080; +20596; +00000; +00063; -00009; +00020;
+01384; +00636; +15616; +00000; +00357; -00140; +00018;
+02600; -01012; +19304; +00000; +00374; -00134; +00009;
+00368; -00316; +20460; +00000; +00154; +00062; +00003;
+01908; -00540; +17560; +00000; +00143; +00019; +00016;
+01644; -01440; +17072; +00000; +00240; -00093; -00004;
+00272; -00960; +19244; +00000; +00205; +00031; +00001;
+00080; +00228; +19920; +00000; +00162; +00103; -00008;
+01836; +00372; +15700; +00000; +00247; -00012; -00003;
+01468; -01484; +16680; +00000; +00208; -00019; -00007;
-00404; +00180; +19452; +00000; +00016; +00146; +00006;
+00304; +00400; +20456; +00000; -00015; +00211; +00007;
+01032; -00896; +18392; +00000; +00215; +00067; -00001;
+01000; -00404; +16180; +00000; +00276; -00023; -00001;
+00408; -00636; +19380; +00000; +00020; +00056; +00006;
+02000; -00992; +20308; +00000; -00138; +00109; +00001;
-00252; -00392; +18788; +00000; +00046; +00027; +00000;
-00368; +00564; +15920; +00000; +00312; -00047; +00014;
+00792; -00928; +16364; +00000; +00275; -00067; +00020;
-00600; -01468; +18436; +00000; -00010; +00002; +00037;
-00372; -00464; +18156; +00000; -00177; +00028; +00063;
+01180; +00240; +18212; +00000; -00057; -00098; +00057;
+00288; -00336; +16144; +00000; +00108; -00207; +00045;
+01352; -00276; +18404; +00000; +00073; -00165; +00050;
-00336; -00528; +19408; +00000; -00055; -00066; +00062;
+01664; -01024; +18052; +00000; -00065; -00020; +00088;
+00916; -00844; +17964; +00000; -00038; +00009; +00078;
-00028; +00264; +17416; +00000; +00002; +00081; +00113;
+02808; -00448; +17940; +00000; -00001; +00072; +00111;
+01024; +00388; +17288; +00000; -00009; +00075; +00122;
+01980; -01552; +17948; +00000; -00016; +00077; +00135;
+01132; -00352; +18016; +00000; -00048; +00061; +00129;
+01972; -00652; +19228; +00000; -00088; +00078; +00132;
+00544; -00120; +20616; +00000; -00060; +00093; +00131;
+01888; -00428; +19992; +00000; +00047; +00086; +00137;
+01068; -01016; +17136; +00000; +00151; -00038; +00135;
+00624; -00032; +18068; +00000; +00083; -00076; +00156;
+01548; -00204; +19432; +00000; -00054; -00038; +00155;
+00572; -00024; +17612; +00000; -00005; -00039; +00164;
+02104; -01228; +17872; +00000; +00125; -00101; +00155;
+00068; -00128; +18116; +00000; +00090; -00066; +00160;
+00012; -00360; +17660; +00000; -00039; -00041; +00177;
+00904; -00184; +20308; +00000; -00136; -00027; +00190;
+01924; -00504; +22612; +00000; -00160; +00079; +00175;
+01720; +00752; +19416; +00000; +00037; +00055; +00180;
+00956; -02168; +16384; +00000; +00230; -00132; +00168;
+00380; -01348; +17920; +00000; +00084; -00097; +00190;
+01972; -01224; +21596; +00000; -00278; +00089; +00190;
+00720; +00988; +18996; +00000; -00326; +00101; +00188;
+01700; +00148; +17092; +00000; +00011; -00072; +00174;
+02292; -00408; +16400; +00000; +00305; -00123; +00155;
+00564; -00708; +15076; +00000; +00227; -00107; +00166;
+00856; -01260; +17520; +00000; -00166; -00086; +00176;
+03316; -01248; +22284; +00000; -00526; +00089; +00143;
-00072; -00008; +21132; +00000; -00379; +00185; +00119;
+02556; +00760; +15524; +00000; +00091; +00024; +00108;
+03008; -00664; +15656; +00000; +00245; -00073; +00061;
-00308; -00172; +18728; +00000; -00005; +00060; +00079;
+01608; -01892; +20620; +00000; -00294; +00156; +00096;
+02032; -01768; +18332; +00000; -00318; +00122; +00078;
+00368; +00132; +16764; +00000; -00121; +00020; +00076;
+00956; -00152; +17704; +00000; -00028; +00074; +00066;
+01660; -01312; +19500; +00000; -00089; +00202; +00042;
-00132; +00508; +19420; +00000; -00140; +00207; +00049;
+01084; +00144; +19648; +00000; -00121; +00139; +00058;
+00780; -01388; +19880; +00000; -00088; +00185; +00057;
+01648; -01788; +18036; +00000; -00027; +00190; +00062;
+01084; -00776; +19176; +00000; -00058; +00162; +00072;
-01536; +00080; +19316; +00000; -00140; +00162; +00074;
-00260; -00624; +17656; +00000; -00104; +00119; +00090;
+01864; -01200; +20140; +00000; -00042; +00077; +00068;
-00708; +01064; +19020; +00000; -00006; +00074; +00071;
+01968; -00908; +18196; +00000; +00060; -00069; +00065;
-00380; -02780; +15668; +00000; +00058; -00168; +00082;
+00156; -02084; +20424; +00000; -00189; +00000; +00101;
-00200; +00536; +20912; +00000; -00315; +00115; +00104;
+00828; +00912; +18304; +00000; -00043; -00075; +00093;
+01084; -01740; +16936; +00000; +00230; -00229; +00090;
+00892; -01704; +17872; +00000; +00110; -00194; +00077;
+00432; -00672; +18540; +00000; -00135; -00124; +00100;
+02252; -00568; +20568; +00000; -00146; -00105; +00102;
+00876; -00560; +18632; +00000; +00057; -00084; +00105;
+00156; -00256; +15476; +00000; +00216; -00097; +00112;
+00788; -00712; +18052; +00000; +00132; -00184; +00105;
+02456; -00648; +21364; +00000; -00088; -00123; +00098;
+02552; -00816; +20964; +00000; -00041; -00165; +00073;
+01324; +00152; +17420; +00000; +00217; -00279; +00066;
+01620; -00784; +16440; +00000; +00354; -00278; +00055;
+02068; -01276; +16984; +00000; +00239; -00208; +00064;
+00456; -00516; +19464; +00000; -00005; -00143; +00073;
+00024; +00184; +18424; +00000; -00087; -00053; +00075;
+01928; -01572; +17668; +00000; +00094; -00074; +00062;
+01912; -01204; +17084; +00000; +00257; -00173; +00032;
+01544; +00656; +18340; +00000; +00165; -00153; +00029;
+01456; -00248; +21188; +00000; +00024; -00021; +00031;
+00012; -01128; +18464; +00000; +00113; +00049; +00039;
+00484; +00012; +16880; +00000; +00276; +00062; +00056;
+02108; -00440; +18020; +00000; +00280; +00049; +00054;
+01264; -01724; +17804; +00000; +00152; +00018; +00051;
+00112; -01120; +17964; +00000; +00036; +00029; +00070;
+01204; +00052; +20380; +00000; +00060; +00064; +00063;
+01316; +01060; +18352; +00000; +00270; +00033; +00068;
+00776; -01496; +16320; +00000; +00443; -00042; +00066;
-00980; -00992; +16660; +00000; +00351; +00021; +00095;
+02476; -00948; +19428; +00000; +00103; +00023; +00090;
-00148; +00244; +19796; +00000; +00002; -00002; +00088;
+01236; -00168; +19248; +00000; +00141; +00022; +00104;
+01272; -01848; +17868; +00000; +00336; +00031; +00077;
+00088; +00600; +16236; +00000; +00375; +00018; +00094;
+01044; -00276; +17996; +00000; +00214; -00018; +00096;
+01928; -00660; +19540; +00000; +00082; +00066; +00106;
+01204; -00384; +18556; +00000; +00124; +00060; +00100;
+00740; +00412; +17732; +00000; +00244; -00001; +00102;
+00472; -01348; +16188; +00000; +00272; -00070; +00091;
+02508; -01448; +17168; +00000; +00133; -00101; +00088;
+01240; -00460; +21840; +00000; -00101; +00005; +00068;
-01556; +01512; +20044; +00000; -00046; +00099; +00076;
+01068; -00344; +15528; +00000; +00322; -00062; +00071;
+03664; -02504; +14448; +00000; +00484; -00257; +00043;
-00516; +00064; +15348; +00000; +00181; -00289; +00054;
+01096; +00364; +18980; +00000; -00243; -00185; +00076;
+02324; -01356; +20080; +00000; -00298; -00054; +00049;
-01256; +00608; +17356; +00000; +00100; -00065; +00051;
+01784; -00512; +15116; +00000; +00389; -00170; +00061;
+03564; -02856; +16544; +00000; +00124; -00192; +00005;
-01720; +00808; +19056; +00000; -00304; -00089; +00046;
+02532; -00412; +24268; +00000; -00414; +00069; +00054;
+03616; -00496; +19648; +00000; -00035; +00046; +00016;
-01684; -00120; +12488; +00000; +00454; -00173; +00009;
+01660; -01732; +14924; +00000; +00388; -00240; +00032;
+01508; -02168; +23536; +00000; -00220; +00029; +00006;
-00356; +01164; +21248; +00000; -00411; +00182; +00047;
+01844; +01220; +19600; +00000; -00027; -00004; +00018;
+00960; -00432; +14540; +00000; +00485; -00100; +00009;
+01916; -01888; +14464; +00000; +00512; -00182; +00009;
+01324; -01436; +21816; +00000; -00044; -00044; +00033;
+00080; +00260; +24440; +00000; -00460; +00239; +00033;
+01272; +01172; +18216; +00000; -00086; +00098; +00030;
+01960; -02776; +13196; +00000; +00537; -00233; +00004;
-01432; -00496; +16556; +00000; +00415; -00111; +00028;
+02292; -00036; +22260; +00000; -00211; +00166; +00039;
-00232; +00112; +19128; +00000; -00329; +00113; +00044;
+00264; -01312; +17788; +00000; +00057; -00041; +00069;
+01012; -01108; +17904; +00000; +00272; +00031; +00047;
+00284; +00352; +16524; +00000; +00159; +00020; +00063;
+01764; -01600; +18808; +00000; -00070; -00143; +00065;
-01112; -00124; +21356; +00000; -00245; +00020; +00081;
+01488; -00284; +20228; +00000; -00058; +00106; +00083;
+01448; +00312; +16528; +00000; +00320; -00110; +00062;
+00804; -00628; +15512; +00000; +00414; -00207; +00078;
+00796; -02308; +19932; +00000; +00078; -00096; +00095;
+00192; -00116; +18108; +00000; -00229; -00001; +00106;
+01624; +00988; +20240; +00000; -00107; -00055; +00106;
+01324; -00312; +18544; +00000; +00252; -00054; +00085;
+02172; -00632; +13548; +00000; +00453; -00113; +00073;
+01808; -00624; +15140; +00000; +00193; -00219; +00076;
+00332; -00204; +21332; +00000; -00237; -00078; +00072;
+02876; +00396; +23408; +00000; -00266; +00127; +00079;
-00620; -00540; +18276; +00000; +00166; +00036; +00041;
+02228; -00100; +11460; +00000; +00501; -00186; +00049;
+01964; -01888; +18100; +00000; +00131; -00250; +00015;
-00120; +00008; +23076; +00000; -00453; +00062; +00062;
+02300; -00828; +22480; +00000; -00460; +00125; +00027;
-00696; +00704; +15388; +00000; +00180; -00131; +00026;
+02224; -00160; +15008; +00000; +00535; -00259; +00002;
+00628; -01244; +17804; +00000; +00244; -00173; +00011;
+00912; -01680; +19756; +00000; -00244; -00074; +00034;
-00848; -00100; +22260; +00000; -00403; +00005; +00033;
+02876; +00216; +19120; +00000; -00064; +00009; +00017;
+03080; -01904; +13684; +00000; +00396; -00212; -00034;
-02256; +00556; +16348; +00000; +00373; -00231; +00001;
+01432; -00364; +22828; +00000; -00070; -00022; +00011;
+01388; -00748; +20204; +00000; -00190; +00013; +00003;
+01768; +00412; +15960; +00000; +00134; -00203; -00002;
+00664; -00824; +18524; +00000; +00317; -00146; -00008;
+00344; -00388; +17708; +00000; +00210; -00004; +00004;
+03636; -02392; +18252; +00000; +00010; -00059; +00003;
-00204; -00532; +20280; +00000; -00150; +00045; -00003;
+00056; +01224; +21076; +00000; -00038; +00207; +00023;
+02144; -00628; +16608; +00000; +00330; -00022; -00019;
+01016; -00336; +13716; +00000; +00465; -00240; -00008;
+02264; -00928; +21080; +00000; +00064; -00074; +00000;
-01208; +00420; +21360; +00000; -00255; +00151; +00019;
+02728; -01456; +18084; +00000; +00013; +00017; +00025;
+01056; -02124; +15464; +00000; +00341; -00169; -00010;
-01960; +01692; +17656; +00000; +00217; -00086; +00027;
+03956; -00112; +22468; +00000; -00080; -00023; +00009;
+00380; -00584; +18520; +00000; +00015; -00054; -00004;
+01160; -00604; +15040; +00000; +00358; -00180; +00017;
+01132; -00344; +17296; +00000; +00320; -00150; +00007;
+00808; +00656; +20120; +00000; +00003; +00024; +00023;
+01024; -01060; +18880; +00000; -00106; +00022; +00033;
+01072; -02160; +17012; +00000; +00002; -00045; +00020;
-00108; +00776; +18532; +00000; +00041; -00044; +00018;
+02788; +00072; +20856; +00000; -00016; +00012; -00003;
-00412; +00392; +17468; +00000; +00096; -00001; -00007;
+00068; -00364; +14252; +00000; +00246; -00110; +00013;
-00500; -02056; +14604; +00000; +00116; -00140; +00017;
+02868; -00392; +21908; +00000; -00250; +00040; +00028;
+02868; -00004; +23072; +00000; -00370; +00214; +00004;
-02384; +00972; +11820; +00000; +00077; +00009; +00022;
+05620; -01492; +16324; +00000; +00267; -00164; +00020;
+04332; -02536; +24916; +00000; -00168; +00164; -00045;
-01892; +01880; +19120; +00000; -00321; +00325; +00019;
+01404; -00732; +13780; +00000; +00004; -00035; +00014;
+04620; -01628; +18012; +00000; +00117; -00086; -00029;
-00572; +00976; +22008; +00000; -00110; +00215; -00021;
+00620; -00036; +19556; +00000; -00143; +00216; +00003;
-01520; -00180; +15060; +00000; +00051; -00024; -00009;
+05028; -01596; +20548; +00000; +00006; +00024; -00025;
+00516; -00828; +21052; +00000; -00176; +00182; -00081;
-00564; +01732; +16680; +00000; -00009; +00076; -00032;
+03324; -01068; +16788; +00000; +00181; -00087; -00059;
+00108; -01976; +19572; +00000; +00080; +00064; -00054;
+00140; -00080; +19676; +00000; -00137; +00197; -00020;
+00568; -00160; +19924; +00000; -00135; +00130; -00024;
+00552; -00172; +20248; +00000; +00035; +00120; -00035;
+00724; -01228; +19268; +00000; +00169; +00144; -00044;
+01524; -00596; +16612; +00000; +00162; +00108; -00045;
+00540; -00112; +16012; +00000; +00022; +00043; -00039;
+00460; +00096; +21144; +00000; -00131; +00112; -00030;
+02144; -00276; +22420; +00000; -00095; +00291; -00040;
-00792; -00916; +13504; +00000; +00294; +00095; -00032;
+01732; -00476; +13668; +00000; +00361; -00167; -00013;
+00468; -00416; +24740; +00000; -00189; +00075; -00029;
+01116; +00292; +24188; +00000; -00401; +00432; -00014;
+02096; -01052; +15064; +00000; +00194; +00057; -00037;
-00204; -00668; +12868; +00000; +00578; -00149; -00031;
+00836; -00440; +21012; +00000; +00119; +00138; -00032;
+01312; -00752; +20880; +00000; -00302; +00268; -00027;
+02188; +00012; +17420; +00000; -00133; +00028; -00026;
+00324; +00320; +17280; +00000; +00179; -00018; -00044;
+00536; +00972; +17892; +00000; +00265; +00084; -00051;
+03084; -01384; +17248; +00000; +00187; +00008; -00057;
-01148; -01488; +18328; +00000; +00009; -00019; -00049;
+00796; -00356; +20524; +00000; -00171; +00112; -00028;
+00688; -00372; +19608; +00000; -00096; +00100; -00061;
+00512; +00648; +16532; +00000; +00207; +00017; -00028;
+00948; -01268; +16944; +00000; +00260; -00038; -00048;
-00764; +00584; +16096; +00000; +00051; +00019; -00024;
+04164; -01100; +20224; +00000; -00144; +00018; -00036;
+00196; +00136; +20124; +00000; -00093; +00054; -00046;
-01368; -00392; +15828; +00000; +00147; +00042; -00007;
+03912; -02360; +15860; +00000; +00157; -00081; -00043;
-00432; +01140; +19188; +00000; -00129; +00005; -00032;
+02504; -00804; +24312; +00000; -00284; +00178; -00016;
-00736; +00480; +16220; +00000; +00000; +00088; -00031;
+03072; -02448; +13908; +00000; +00325; -00103; -00018;
-00084; -00680; +18784; +00000; +00083; -00030; -00039;
+01860; +01060; +22240; +00000; -00268; +00192; -00005;
+00596; -00136; +19296; +00000; -00141; +00071; -00043;
-00256; +00292; +15608; +00000; +00278; -00066; -00013;
+01508; -01304; +18508; +00000; +00313; +00012; -00039;
+00132; -00860; +18100; +00000; +00066; +00055; -00025;
+02324; -01964; +19084; +00000; -00141; -00044; -00034;
-01212; +00828; +19608; +00000; -00149; -00023; -00037;
+02604; +00404; +18652; +00000; +00119; -00003; -00035;
+00536; -00552; +16016; +00000; +00412; -00130; -00067;
-01260; +00652; +14528; +00000; +00393; -00174; -00013;
+03584; -03408; +21656; +00000; -00035; -00047; -00028;
-02052; +00860; +18268; +00000; -00260; -00008; -00026;
+02108; -00416; +19360; +00000; -00072; -00098; -00012;
+00652; -00388; +18588; +00000; +00233; -00064; -00061;
+01496; +00260; +15672; +00000; +00439; -00080; -00029;
+03736; -02152; +18232; +00000; +00218; -00143; -00046;
-01216; +00284; +20152; +00000; -00142; +00042; -00025;
+00740; +00288; +20540; +00000; -00101; +00123; +00003;
+03752; -01800; +17344; +00000; +00253; -00026; -00041;
+00124; +00880; +15552; +00000; +00408; -00100; -00048;
+01612; -00048; +20484; +00000; +00171; +00013; -00034;
+02676; -00784; +20104; +00000; +00001; +00111; -00053;
+00972; -02184; +15056; +00000; +00175; -00046; -00045;
-00132; +00124; +16752; +00000; +00212; -00060; -00043;
+01648; +02168; +23580; +00000; -00019; +00258; -00038;
+03196; -01288; +17960; +00000; +00088; +00238; -00079;
-00676; -01320; +09512; +00000; +00431; -00169; -00062;
+01492; -00524; +18324; +00000; +00119; -00020; -00035;
+01492; +01416; +26600; +00000; -00428; +00486; -00057;
+00352; +00024; +17648; +00000; -00117; +00311; -00041;
+00924; -02516; +09488; +00000; +00510; -00187; -00048;
+00456; -02636; +17840; +00000; +00316; -00031; -00052;
-00968; +02724; +23756; +00000; -00383; +00327; -00026;
+02060; +00124; +22084; +00000; -00399; +00191; -00023;
+00932; -00208; +15584; +00000; +00173; -00057; -00037;
+00172; -02816; +13444; +00000; +00587; -00194; -00037;
-00988; -00644; +17112; +00000; +00191; -00109; -00003;
+02896; -01168; +23720; +00000; -00363; +00116; +00011;
-00108; +02524; +22148; +00000; -00280; +00193; +00007;
+00440; +00012; +15100; +00000; +00422; -00062; +00006;
+02772; -01804; +10972; +00000; +00743; -00204; -00010;
+01040; -01756; +21972; +00000; +00220; +00041; -00014;
-00228; +00864; +22024; +00000; -00290; +00357; +00030;
+02908; -00904; +18912; +00000; -00121; +00219; -00005;
+01072; +00896; +13776; +00000; +00385; -00001; -00019;
+01492; +00192; +19060; +00000; +00501; +00106; -00029;
+00796; +01288; +18800; +00000; +00259; +00237; -00017;
+01668; -00952; +17576; +00000; +00093; +00108; -00021;
-00528; -00764; +17956; +00000; +00071; +00010; -00004;
+01556; -01124; +20644; +00000; +00022; +00076; -00026;
+02008; +00328; +18056; +00000; +00031; +00070; -00044;
+00196; +01892; +16096; +00000; +00115; -00105; -00051;
-01988; +00976; +18244; +00000; +00077; -00072; -00026;
+01372; +00664; +21412; +00000; -00030; +00134; -00011;
+03504; -01048; +18292; +00000; +00007; +00036; -00029;
-02196; -00972; +14896; +00000; +00055; -00192; -00011;
-01940; -00064; +16676; +00000; -00161; -00166; +00029;
+04288; -01692; +21996; +00000; -00511; +00065; +00005;
-00536; +01160; +20044; +00000; -00500; +00071; -00005;
+01276; +02804; +18792; +00000; -00142; +00013; +00032;
+02168; -00564; +16280; +00000; +00127; -00075; -00023;
+00092; +00620; +15360; +00000; +00011; -00167; +00023;
+03588; -03028; +22648; +00000; -00529; +00077; +00039;
+01120; -00496; +20772; +00000; -00783; +00346; +00032;
+02396; +00360; +14732; +00000; -00476; +00160; +00025;
+02416; +00020; +14868; +00000; -00260; +00106; -00017;
+02636; +00152; +20096; +00000; -00453; +00429; -00007;
+02200; -00104; +18544; +00000; -00672; +00618; -00011;
+02012; +00848; +15484; +00000; -00597; +00545; +00011;
+02384; -00676; +18240; +00000; -00548; +00642; +00001;
+01160; +00836; +22076; +00000; -00611; +00952; +00013;
+00156; -00124; +19916; +00000; -00630; +01043; +00028;
-00348; -00212; +17512; +00000; -00533; +00804; +00029;
+02460; -01192; +22528; +00000; -00618; +00751; +00031;
+00880; -03100; +24132; +00000; -00747; +00903; +00020;
-00328; +02080; +15884; +00000; -00566; +00673; +00052;
+02752; -00340; +17452; +00000; -00333; +00282; +00047;
-04716; +01928; +25460; +00000; -00461; +00467; +00063;
+02912; +01796; +27468; +00000; -00556; +00832; +00109;
+00984; -04488; +13864; +00000; -00184; +00376; +00036;
-00996; -00128; +15344; +00000; -00090; -00027; +00098;
+01060; -02508; +32767; +00000; -00656; +00443; +00081;
+00844; +01096; +22696; +00000; -00717; +00922; +00097;
-00056; -01228; +12680; +00000; +00112; +00147; +00059;
-03144; +02840; +13220; +00000; +00415; -00165; +00090;
+06332; -03532; +28024; +00000; -00228; +00370; +00053;
+00372; +02016; +22568; +00000; -00595; +00534; +00041;
-01872; -00500; +16800; +00000; -00108; +00058; +00088;
+01400; -01408; +18768; +00000; +00273; +00050; +00064;
+02936; -02896; +23520; +00000; +00106; +00363; +00035;
-00316; +02088; +17872; +00000; -00133; +00245; +00047;
+02748; +00152; +16212; +00000; -00061; +00023; +00056;
+04072; -01932; +15564; +00000; +00102; -00015; -00023;
+00704; -00380; +16280; +00000; +00172; +00098; -00010;
+01272; +01080; +17112; +00000; +00048; +00259; -00002;
+01612; +01784; +14712; +00000; +00015; +00314; +00000;
+03036; -00768; +17836; +00000; +00067; +00242; -00028;
-01436; +00400; +20768; +00000; -00041; +00392; -00026;
+01472; -00028; +22428; +00000; -00102; +00539; -00012;
+00880; -00816; +18984; +00000; +00042; +00412; -00040;
+00696; -01168; +19596; +00000; +00157; +00376; -00003;
-00952; -00488; +22424; +00000; -00018; +00508; -00011;
+00528; +01720; +18760; +00000; -00040; +00524; +00039;
+01300; -00636; +16772; +00000; +00213; +00302; +00032;
-01780; +00492; +17744; +00000; +00330; +00402; +00082;
+00992; -00016; +18172; +00000; +00191; +00569; +00098;
+00196; -00072; +14936; +00000; +00132; +00377; +00101;
+01056; -00896; +15472; +00000; +00020; +00252; +00119;
+01344; -01288; +19720; +00000; -00193; +00438; +00097;
+00108; +01292; +19136; +00000; -00201; +00603; +00117;
+00856; +01616; +15904; +00000; +00000; +00438; +00109;
+01432; +00128; +15404; +00000; +00066; +00336; +00101;
+00368; -00640; +17548; +00000; -00192; +00375; +00101;
+01332; -00796; +19540; +00000; -00509; +00441; +00109;
+01008; -00040; +19556; +00000; -00523; +00434; +00096;
+00564; +00216; +18360; +00000; -00257; +00328; +00096;
+00052; +00444; +17256; +00000; -00130; +00265; +00084;
+00924; -00576; +17648; +00000; -00227; +00231; +00082;
+01600; -00584; +19516; +00000; -00405; +00193; +00086;
+00636; +00012; +20984; +00000; -00458; +00191; +00075;
+00212; +00416; +18252; +00000; -00266; +00186; +00082;
+01260; -00652; +17436; +00000; -00057; +00122; +00062;
-00076; +00616; +18096; +00000; -00076; +00089; +00061;
+00744; -00156; +21868; +00000; -00277; +00117; +00064;
+00728; -00312; +21148; +00000; -00324; +00145; +00056;
+02084; -00300; +18896; +00000; -00106; +00147; +00048;
+01184; +00424; +16696; +00000; +00154; +00075; +00035;
-00784; +00184; +18460; +00000; +00119; +00101; +00053;
+01008; -00232; +21604; +00000; -00169; +00266; +00058;
+00052; -00136; +20616; +00000; -00258; +00342; +00054;
+00940; -00676; +16420; +00000; -00041; +00172; +00051;
+00600; +00400; +17904; +00000; +00002; +00100; +00038;
+01028; -00136; +20972; +00000; -00180; +00245; +00038;
+00728; -00092; +18752; +00000; -00208; +00220; +00041;
-00340; +00072; +17372; +00000; -00099; +00125; +00056;
+00244; -00020; +18484; +00000; -00116; +00166; +00065;
+01676; -00112; +19492; +00000; -00240; +00201; +00066;
+00624; -01240; +19084; +00000; -00280; +00161; +00061;
-00436; +00628; +19008; +00000; -00224; +00148; +00071;
+02328; +00264; +20024; +00000; -00147; +00139; +00059;
+00208; +00380; +20032; +00000; -00079; +00155; +00054;
-00124; +00184; +18704; +00000; -00024; +00158; +00083;
+01480; -00668; +17796; +00000; -00036; +00107; +00075;
+00292; +00144; +18208; +00000; -00102; +00076; +00085;
+00936; -00300; +19544; +00000; -00170; +00097; +00097;
+00852; +00312; +18952; +00000; -00148; +00137; +00081;
-00128; +00236; +16924; +00000; +00015; +00055; +00085;
+01808; -00132; +16856; +00000; +00057; -00051; +00068;
+01204; -01132; +18440; +00000; -00134; -00006; +00069;
+00224; +00428; +19064; +00000; -00320; +00067; +00075;
+01720; +00476; +18920; +00000; -00240; +00062; +00081;
+00724; -00232; +18148; +00000; -00040; +00071; +00063;
+00016; +00568; +16292; +00000; +00012; +00047; +00086;
+03460; -00564; +20096; +00000; -00217; +00073; +00073;
-00008; -00180; +21140; +00000; -00382; +00220; +00087;
+00056; -00012; +19520; +00000; -00243; +00234; +00102;
+00464; +00264; +16900; +00000; -00018; +00166; +00096;
+01988; -00852; +18948; +00000; -00034; +00150; +00093;
+00288; +00548; +20244; +00000; -00260; +00160; +00102;
+00372; +00644; +20884; +00000; -00363; +00215; +00115;
+00740; +00072; +18400; +00000; -00137; +00138; +00116;
+00672; -00560; +16964; +00000; +00052; +00094; +00128;
-00072; -00024; +18820; +00000; -00052; +00162; +00144;
+00148; +00196; +18360; +00000; -00211; +00162; +00160;
+01816; -00544; +19412; +00000; -00229; +00088; +00162;
+00596; -00344; +20376; +00000; -00202; +00161; +00159;
+00696; +01060; +18544; +00000; -00102; +00222; +00173;
+00556; -00544; +16740; +00000; +00037; +00098; +00169;
+01252; -00248; +19852; +00000; -00067; +00141; +00184;
+00484; -00256; +21536; +00000; -00288; +00287; +00186;
+00380; +01424; +19116; +00000; -00197; +00279; +00200;
+01636; -00212; +16932; +00000; +00095; +00088; +00187;
+00424; -00968; +17624; +00000; +00111; +00075; +00189;
+01340; -00664; +19152; +00000; -00199; +00156; +00202;
+00164; +01052; +20184; +00000; -00368; +00164; +00194;
+01012; +00100; +19676; +00000; -00162; +00091; +00199;
+01288; -00396; +16140; +00000; +00085; +00032; +00170;
+00360; +00072; +16344; +00000; +00070; -00011; +00180;
+00960; -00128; +20448; +00000; -00209; +00064; +00173;
+01172; +00980; +20756; +00000; -00308; +00125; +00165;
+01224; -01224; +18052; +00000; -00103; +00043; +00158;
+01464; +00328; +17736; +00000; +00024; +00036; +00142;
-00748; +00396; +19540; +00000; -00051; +00078; +00140;
+02104; -00512; +19580; +00000; -00109; +00075; +00143;
+00640; +00064; +18116; +00000; -00081; +00011; +00140;
+01160; +00948; +19536; +00000; -00082; +00045; +00147;
+00236; +00928; +18932; +00000; -00040; +00064; +00146;
+01180; -00720; +16896; +00000; +00045; +00011; +00157;
+01996; -00680; +16140; +00000; -00037; -00087; +00153;
+00184; +00532; +21044; +00000; -00321; -00020; +00161;
+00248; +01100; +21020; +00000; -00379; +00052; +00154;
+01956; -00244; +16960; +00000; -00057; -00079; +00142;
+01176; -01360; +14840; +00000; +00105; -00173; +00133;
+00016; +00996; +18200; +00000; -00226; -00095; +00146;
+01604; -00256; +21784; +00000; -00594; +00061; +00152;
-00508; +00564; +20400; +00000; -00532; +00117; +00152;
+00904; +00648; +17756; +00000; -00191; +00059; +00153;
+02308; -00332; +15836; +00000; -00049; -00040; +00132;
+00068; -00092; +20468; +00000; -00328; -00023; +00131;
-00132; +00592; +24488; +00000; -00620; +00187; +00151;
+02144; -00528; +20316; +00000; -00450; +00228; +00144;
+01396; -00188; +14392; +00000; -00031; +00005; +00129;
-01464; -00784; +16820; +00000; -00067; +00007; +00160;
+01388; -00928; +22340; +00000; -00527; +00282; +00174;
+00728; +00716; +19116; +00000; -00615; +00255; +00163;
+01164; +00576; +15964; +00000; -00262; +00000; +00168;
+01552; +00780; +17396; +00000; -00081; +00078; +00158;
+01908; -00796; +19568; +00000; -00189; +00241; +00163;
+00556; -00440; +15996; +00000; -00350; +00169; +00183;
+01752; -02188; +19056; +00000; -00524; +00184; +00194;
-00184; +00324; +20568; +00000; -00599; +00318; +00189;
+01096; +00856; +20320; +00000; -00418; +00238; +00186;
+00120; +00976; +17360; +00000; -00169; +00055; +00171;
+00484; +00544; +19620; +00000; -00131; -00040; +00176;
+00996; -00664; +21528; +00000; -00266; -00070; +00175;
+01468; -00224; +21336; +00000; -00339; -00110; +00173;
-00824; -00576; +19220; +00000; -00216; -00191; +00167;
-00352; -00764; +18336; +00000; -00073; -00222; +00181;
-00416; -00796; +20612; +00000; -00160; -00200; +00161;
-00480; +01076; +20876; +00000; -00276; -00185; +00176;
+00908; +00156; +20392; +00000; -00193; -00271; +00148;
+00060; +00472; +17152; +00000; +00032; -00350; +00153;
+01344; -00984; +17280; +00000; +00072; -00378; +00152;
+00872; -00248; +18820; +00000; -00158; -00311; +00148;
+00220; -00184; +19920; +00000; -00323; -00265; +00149;
+00972; +00876; +18628; +00000; -00266; -00274; +00138;
+02860; -00804; +19456; +00000; -00165; -00242; +00095;
-00428; +00404; +17552; +00000; -00097; -00219; +00086;
+03028; -00440; +18884; +00000; -00160; -00154; +00097;
+00836; -01616; +17996; +00000; -00268; -00110; +00084;
-00024; +01128; +16168; +00000; -00287; -00089; +00123;
+02356; +00564; +21044; +00000; -00306; -00070; +00094;
+01600; +01256; +19400; +00000; -00217; -00035; +00076;
+01324; -00724; +15016; +00000; -00032; -00239; +00059;
+02140; -01876; +17508; +00000; -00146; -00270; +00053;
+01772; -01300; +23732; +00000; -00510; -00020; +00027;
-01700; +01468; +20924; +00000; -00471; +00101; +00054;
+02268; -00752; +15436; +00000; -00028; -00080; +00040;
+01052; +00400; +14100; +00000; +00163; -00250; +00022;
-00804; +00588; +20368; +00000; -00129; -00159; +00046;
-00312; -00388; +22248; +00000; -00370; -00041; +00066;
+01624; -01520; +18792; +00000; -00192; -00142; +00063;
-01648; -01212; +16136; +00000; +00046; -00224; +00059;
-02064; +00240; +19748; +00000; -00028; -00124; +00085;
+00728; -01356; +22160; +00000; -00196; -00018; +00079;
-00540; -01708; +16740; +00000; -00110; -00132; +00088;
+01240; +01332; +18032; +00000; -00030; -00242; +00104;
+00904; +00164; +21352; +00000; -00071; -00114; +00097;
+00736; -01364; +14976; +00000; +00105; -00151; +00118;
-00560; -02368; +14636; +00000; +00150; -00379; +00130;
+00496; +00528; +20504; +00000; -00271; -00197; +00146;
+01784; -00652; +22616; +00000; -00447; -00042; +00116;
+01100; +00780; +17700; +00000; -00019; -00210; +00118;
+01972; -02416; +13832; +00000; +00328; -00357; +00098;
+02008; -00228; +18524; +00000; +00101; -00340; +00089;
+01816; -01476; +23604; +00000; -00340; -00198; +00090;
-00128; -00716; +19880; +00000; -00293; -00068; +00092;
+00564; -00732; +12476; +00000; +00255; -00351; +00072;
+03164; +00108; +17348; +00000; +00397; -00510; +00049;
+00132; -02340; +23056; +00000; -00022; -00258; +00045;
-02908; -00660; +15808; +00000; -00206; -00206; +00071;
+02048; -00476; +17132; +00000; -00010; -00466; +00078;
+02196; -01660; +23304; +00000; -00003; -00280; +00020;
-02220; +01924; +19844; +00000; +00082; -00109; +00047;
+01552; -02436; +14744; +00000; +00296; -00338; +00050;
+02920; -02360; +15668; +00000; +00180; -00414; +00042;
-00428; +00412; +22832; +00000; -00297; -00124; +00066;
+01476; +00380; +21580; +00000; -00359; +00078; +00084;
+00684; -00912; +14296; +00000; +00169; -00202; +00056;
-00076; -00700; +13204; +00000; +00428; -00348; +00079;
+03416; -02352; +21948; +00000; -00116; -00122; +00065;
-00384; -00308; +19864; +00000; -00590; +00059; +00073;
+01076; -01652; +16772; +00000; -00365; -00170; +00086;
+01848; -00972; +18316; +00000; -00087; -00179; +00053;
+00176; -00272; +19276; +00000; -00065; -00020; +00054;
+00836; -00152; +15780; +00000; -00106; -00105; +00078;
+02592; -02656; +18416; +00000; -00201; -00168; +00073;
+01620; -01848; +21744; +00000; -00324; +00000; +00067;
-00188; +00384; +17932; +00000; -00204; +00016; +00079;
+01180; -01844; +15948; +00000; +00047; -00078; +00082;
+01360; -02196; +17280; +00000; +00013; -00001; +00075;
-00128; -00948; +21404; +00000; -00234; +00132; +00086;
+00448; +00272; +19536; +00000; -00184; +00083; +00080;
+02864; -01784; +16248; +00000; +00158; -00128; +00057;
+00408; -02316; +16820; +00000; +00264; -00182; +00052;
+02472; -00536; +20300; +00000; -00052; +00027; +00057;
-00132; +01296; +20848; +00000; -00179; +00136; +00058;
+01004; -01612; +19604; +00000; +00178; +00149; +00073;
+00432; -01948; +14860; +00000; +00539; +00056; +00054;
+01124; -02120; +15580; +00000; +00415; +00004; +00064;
+02012; -01068; +21696; +00000; -00083; +00063; +00038;
-00684; +00228; +22048; +00000; -00217; +00166; +00039;
+02684; -01024; +17332; +00000; +00173; +00084; +00027;
+01304; -01944; +14556; +00000; +00541; +00007; -00020;
-00812; +01684; +18664; +00000; +00446; +00111; +00010;
+02532; -02388; +22368; +00000; +00097; +00227; +00002;
-00416; -02080; +17840; +00000; +00029; +00188; -00003;
+00732; -02560; +18400; +00000; +00217; +00084; +00017;
+01860; -00980; +20052; +00000; +00266; +00154; -00008;
-00152; +00120; +16448; +00000; +00254; +00170; +00002;
-00084; -00008; +15044; +00000; +00278; +00050; +00016;
+00836; -03264; +20196; +00000; +00204; +00139; +00015;
+01004; -01188; +17916; +00000; +00141; +00271; +00021;
+02488; -00256; +14132; +00000; +00264; +00008; +00011;
+02304; -00464; +17628; +00000; +00258; -00039; +00024;
+00520; -01372; +21688; +00000; +00086; +00241; +00026;
+00444; -01304; +17208; +00000; +00095; +00333; +00047;
+01348; -01532; +15060; +00000; +00230; +00139; +00030;
+00472; -01792; +17500; +00000; +00187; +00160; +00030;
+00928; -00248; +20024; +00000; +00024; +00260; +00030;
+00560; -00312; +19064; +00000; +00028; +00288; +00047;
+04676; -02540; +13388; +00000; +00233; +00208; +00040;
+00052; -03032; +12132; +00000; +00310; +00032; +00030;
-03492; +02432; +21796; +00000; -00101; +00291; +00100;
+01964; -01280; +25116; +00000; -00397; +00760; +00070;
+05364; -00720; +13440; +00000; +00063; +00536; +00049;
+01356; -05048; +10224; +00000; +00575; -00089; +00015;
-03380; +02060; +20744; +00000; +00035; +00236; +00100;
+04024; -03512; +30428; +00000; -00618; +01030; +00060;
-00236; -00032; +12520; +00000; -00046; +00726; +00082;
+01964; -00900; +09400; +00000; +00681; -00022; +00087;
-02208; +00448; +19428; +00000; +00325; +00325; +00091;
+02120; -02136; +25480; +00000; -00394; +00961; +00099;
+02040; -02048; +17576; +00000; -00279; +00569; +00081;
+01440; -01148; +14500; +00000; +00137; +00147; +00079;
+00212; -00036; +21932; +00000; +00111; +00437; +00063;
+01008; -00584; +21308; +00000; -00008; +00577; +00052;
+00260; -01476; +16576; +00000; +00094; +00296; +00070;
+02852; -01468; +17484; +00000; +00105; +00180; +00058;
-00452; -01192; +19332; +00000; -00076; +00228; +00044;
-00272; -00012; +19456; +00000; -00174; +00264; +00057;
-01032; -01252; +20524; +00000; -00050; +00259; +00033;
+02320; -02184; +16080; +00000; +00163; +00199; +00037;
-00956; -01112; +15776; +00000; +00057; +00071; +00011;
+01272; -00064; +22488; +00000; -00294; +00251; +00048;
+00644; -00852; +21708; +00000; -00334; +00385; +00006;
+00036; -01060; +15364; +00000; +00133; +00194; +00039;
+02400; -01364; +17232; +00000; +00235; +00091; +00014;
-01216; -01008; +19396; +00000; -00147; +00288; +00027;
+01860; -02328; +19048; +00000; -00371; +00317; +00036;
+00020; -00788; +18260; +00000; -00262; +00235; +00024;
+01252; -00160; +19124; +00000; -00023; +00311; +00040;
+01660; -01396; +15464; +00000; +00116; +00232; +00006;
+01836; -02504; +14260; +00000; +00028; +00179; +00024;
+00440; -02232; +20304; +00000; -00307; +00372; +00019;
+01704; +00356; +21856; +00000; -00418; +00666; +00059;
+00372; -00792; +18048; +00000; -00104; +00696; +00032;
+00336; +01080; +14040; +00000; +00349; +00513; +00045;
+04476; -02260; +17644; +00000; +00320; +00437; +00013;
-00260; -02708; +21796; +00000; -00128; +00624; +00038;
+01464; -01284; +20196; +00000; -00372; +00750; +00072;
+01816; -01368; +20324; +00000; -00181; +00704; +00032;
-03380; +01408; +17276; +00000; +00245; +00645; +00076;
+00524; -01980; +17232; +00000; +00360; +00625; +00085;
+00828; -02284; +17660; +00000; +00121; +00504; +00068;
-00988; +00112; +19912; +00000; -00081; +00308; +00082;
-00532; -00540; +21312; +00000; -00022; +00163; +00085;
+01828; -02572; +18900; +00000; +00181; +00134; +00056;
-02800; -01348; +16200; +00000; +00322; +00065; +00059;
-00176; -00148; +19400; +00000; +00212; +00058; +00094;
-00856; -00764; +21760; +00000; +00028; +00135; +00071;
-01492; +00288; +16872; +00000; +00182; +00070; +00116;
+02356; -00376; +18408; +00000; +00398; -00085; +00089;
-00308; +00504; +18548; +00000; +00449; -00034; +00088;
+01688; -01632; +18164; +00000; +00391; -00036; +00091;
+00508; -01836; +17892; +00000; +00310; -00124; +00078;
+01028; -00540; +20324; +00000; +00179; +00025; +00092;
-00048; -00696; +19388; +00000; +00202; +00138; +00078;
-00328; +01648; +18972; +00000; +00436; +00096; +00079;
+02600; +00044; +14584; +00000; +00610; +00021; +00073;
+06040; -01668; +12096; +00000; +00574; -00159; +00039;
+01400; +00156; +16476; +00000; +00231; -00172; +00053;
-01104; +00164; +19136; +00000; -00094; +00241; +00074;
+00356; +00196; +14628; +00000; +00113; +00271; +00054;
+05916; -01668; +18044; +00000; +00387; +00059; +00000;
-01064; +04200; +18704; +00000; +00209; +00190; -00022;
+01684; -00344; +18928; +00000; -00042; +00303; +00014;
+04400; -01088; +18344; +00000; -00176; +00336; +00011;
+07664; -05296; +23600; +00000; -00159; +00487; -00055;
-05588; +03320; +17156; +00000; +00061; +00571; -00008;
+00936; -02312; +10552; +00000; +00299; +00379; +00033;
+01628; -00008; +17076; +00000; +00087; +00194; -00045;
-03636; -01312; +22256; +00000; -00413; +00623; +00059;
+00692; -00772; +22124; +00000; -00557; +00794; +00048;
+00828; +00676; +14688; +00000; -00048; +00414; +00054;
-01032; -02748; +11548; +00000; +00315; +00138; +00063;
+00104; +00068; +20024; +00000; -00079; +00478; +00117;
+04348; -02500; +27084; +00000; -00545; +00909; +00105;
-04024; -00228; +13596; +00000; -00167; +00624; +00147;
+02356; -03352; +12068; +00000; +00369; +00158; +00153;
+00980; -00708; +22152; +00000; +00186; +00232; +00110;
-01092; -00208; +22276; +00000; -00196; +00592; +00179;
+00952; -01812; +16496; +00000; -00042; +00376; +00174;
+01272; -01108; +15272; +00000; +00282; +00139; +00159;
-00120; -00108; +20944; +00000; +00245; +00314; +00127;
-00608; -00116; +20316; +00000; +00195; +00467; +00128;
+02268; -00896; +14768; +00000; +00329; +00280; +00115;
+02288; -01488; +17316; +00000; +00287; +00162; +00077;
-00872; +01320; +24736; +00000; +00064; +00414; +00087;
+01748; -01480; +22968; +00000; +00203; +00542; +00080;
+00428; -01228; +13580; +00000; +00641; +00263; +00065;
+01488; -00768; +20132; +00000; +00557; +00188; +00054;
-00280; +00184; +26136; +00000; +00131; +00473; +00046;
+01288; -01264; +20768; +00000; +00266; +00429; +00045;
+01404; -01300; +15108; +00000; +00752; +00083; +00028;
+00792; -00624; +19100; +00000; +00753; +00098; +00015;
+00304; -00160; +20576; +00000; +00425; +00307; +00007;
-00364; -00600; +17636; +00000; +00426; +00235; +00003;
+00348; -00824; +16060; +00000; +00578; +00123; +00002;
+00772; -00816; +18368; +00000; +00519; +00236; -00025;
-00276; -00440; +15048; +00000; +00432; +00236; -00025;
+01448; -02696; +13396; +00000; +00394; +00068; -00028;
+00084; -01096; +15704; +00000; +00203; +00120; -00034;
-01688; +01432; +17636; +00000; +00039; +00356; -00021;
+00828; +00924; +15852; +00000; +00219; +00373; -00019;
+00060; -01496; +11512; +00000; +00490; +00271; -00020;
-00172; -00844; +14536; +00000; +00308; +00388; +00008;
+01952; -00748; +19000; +00000; -00187; +00570; +00015;
-00596; -00508; +18404; +00000; -00365; +00569; +00022;
-00116; -00324; +19056; +00000; -00146; +00517; +00046;
+01696; -00680; +17916; +00000; +00159; +00514; +00023;
-00444; +00496; +15388; +00000; +00268; +00433; +00024;
+00052; +00344; +18296; +00000; +00076; +00410; +00054;
+01456; -01680; +22188; +00000; -00200; +00570; +00053;
-00048; -00536; +17876; +00000; -00162; +00607; +00073;
+00632; +00224; +16132; +00000; +00051; +00425; +00081;
+01092; -00076; +19848; +00000; +00073; +00455; +00070;
+00396; -00972; +19496; +00000; -00001; +00561; +00065;
+00352; -00620; +18152; +00000; +00009; +00476; +00073;
+01096; -00716; +19232; +00000; -00034; +00443; +00064;
-00952; +00024; +19892; +00000; -00091; +00504; +00053;
-00332; -00040; +18088; +00000; -00029; +00455; +00064;
-00048; -00984; +17636; +00000; -00010; +00361; +00052;
-00040; -01292; +16876; +00000; -00126; +00370; +00058;
+00316; -00652; +18688; +00000; -00303; +00315; +00036;
-03400; +00484; +20820; +00000; -00392; +00352; +00055;
+00404; -00608; +20612; +00000; -00301; +00435; +00064;
+00200; -02184; +15760; +00000; -00072; +00218; +00036;
-01568; -01160; +15724; +00000; -00114; +00058; +00069;
-01044; -01824; +20436; +00000; -00528; +00212; +00081;
+01208; -00060; +19456; +00000; -00690; +00296; +00080;
-00888; -00356; +16048; +00000; -00387; +00078; +00082;
-00600; -00800; +15864; +00000; -00147; +00085; +00096;
-01176; -01404; +19144; +00000; -00256; +00178; +00079;
+00904; +01192; +20208; +00000; -00465; +00196; +00094;
+01480; -03120; +19396; +00000; -00404; +00071; +00070;
-02524; -01364; +18336; +00000; -00260; +00096; +00095;
+02280; -01400; +22020; +00000; -00202; +00159; +00081;
-00240; +00444; +18024; +00000; -00111; +00087; +00051;
-00852; -00228; +18796; +00000; +00011; -00026; +00066;
+00988; -01816; +21156; +00000; -00020; +00060; +00041;
+01272; -01416; +20028; +00000; +00023; +00069; +00013;
+00212; -00284; +17852; +00000; +00175; -00103; -00006;
+01056; -00132; +19644; +00000; +00217; -00083; -00011;
+00764; -01808; +20780; +00000; +00171; +00055; -00020;
+00156; -00464; +17980; +00000; +00172; +00104; -00016;
+00084; -01324; +18848; +00000; +00221; +00082; -00027;
+00036; -00948; +19836; +00000; +00242; +00145; -00037;
+00348; -00560; +19364; +00000; +00252; +00180; -00040;
+01052; -00804; +18756; +00000; +00276; +00174; -00050;
-00568; -00068; +17992; +00000; +00303; +00204; -00049;
-00496; -01084; +18024; +00000; +00332; +00253; -00029;
+00324; -01500; +17784; +00000; +00301; +00302; -00028;
-00868; -00960; +17920; +00000; +00252; +00305; -00015;
-00432; -01092; +18912; +00000; +00198; +00322; -00004;
-00124; -00768; +18896; +00000; +00169; +00346; -00001;
+00220; -00600; +18464; +00000; +00230; +00320; +00011;
-00432; -00312; +18248; +00000; +00297; +00292; +00018;
-00372; -01104; +17696; +00000; +00337; +00290; +00034;
-00364; -00976; +16100; +00000; +00313; +00265; +00045;
-00588; -00384; +17224; +00000; +00226; +00259; +00057;
-00340; -00664; +19244; +00000; +00161; +00319; +00064;
-00572; -00996; +16444; +00000; +00242; +00306; +00059;
-00252; -01044; +15140; +00000; +00350; +00161; +00064;
+00392; -00368; +18392; +00000; +00205; +00194; +00052;
-00936; +00016; +19040; +00000; +00095; +00300; +00065;
+00284; -00904; +16744; +00000; +00236; +00237; +00065;
-00668; -00500; +14852; +00000; +00396; +00125; +00067;
+00392; -00880; +16952; +00000; +00287; +00152; +00075;
+00728; -00784; +18868; +00000; +00068; +00227; +00073;
-00560; -00128; +17920; +00000; +00069; +00218; +00077;
+00184; -00556; +17264; +00000; +00236; +00171; +00078;
+00224; -01196; +17320; +00000; +00300; +00135; +00063;
+00000; -00424; +18432; +00000; +00204; +00124; +00055;
-00144; -00172; +18572; +00000; +00133; +00081; +00058;
+00876; -01088; +18876; +00000; +00182; +00025; +00041;
-00932; -00252; +16980; +00000; +00267; +00005; +00039;
+00456; -00548; +17876; +00000; +00289; -00025; +00038;
-00572; -00888; +18492; +00000; +00203; -00001; +00026;
-00852; -01116; +18284; +00000; +00151; +00006; +00035;
-00340; -00476; +17684; +00000; +00146; -00017; +00022;
+00004; -00316; +18496; +00000; +00173; -00002; +00026;
+00188; -00720; +19064; +00000; +00186; +00025; +00014;
-00080; -00364; +18480; +00000; +00208; +00016; +00019;
+00324; -00964; +17856; +00000; +00184; +00004; +00023;
+00160; -00704; +18868; +00000; +00086; +00071; +00021;
-00244; -01196; +18616; +00000; +00056; +00135; +00032;
+00716; -00856; +17440; +00000; +00124; +00121; +00023;
+00148; -00448; +17076; +00000; +00154; +00061; +00022;
+00128; -00508; +18916; +00000; +00032; +00094; +00027;
+00992; -01396; +19136; +00000; -00077; +00144; +00017;
+00712; -00784; +17516; +00000; -00012; +00098; +00006;
+00144; +00084; +17440; +00000; +00055; +00109; +00007;
+00192; -00508; +19420; +00000; +00028; +00229; +00008;
-00276; -00652; +17812; +00000; +00032; +00279; +00018;
+00700; -01220; +16000; +00000; +00063; +00222; +00024;
+00360; -00860; +17220; +00000; -00026; +00203; +00023;
-00060; -01128; +18996; +00000; -00140; +00244; +00023;
-00896; -00556; +18512; +00000; -00089; +00237; +00020;
+00288; +00048; +16952; +00000; +00061; +00168; +00011;
-01316; -00472; +16940; +00000; +00102; +00075; +00001;
-01552; -00256; +19160; +00000; -00033; +00126; +00033;
-00812; -01688; +19664; +00000; -00111; +00173; +00036;
-01064; -00744; +15832; +00000; +00028; +00030; +00051;
-00552; -01016; +17276; +00000; +00073; -00130; +00047;
-01304; -00524; +20172; +00000; -00068; -00070; +00058;
-00520; -01220; +19020; +00000; -00091; -00074; +00047;
-01128; -01232; +17000; +00000; +00072; -00245; +00045;
-00344; -00788; +19220; +00000; +00101; -00249; +00049;
-01120; -00592; +20996; +00000; +00011; -00120; +00059;
-00260; +00044; +18640; +00000; +00085; -00156; +00066;
+00604; -01588; +16860; +00000; +00209; -00253; +00064;
+01460; -01944; +18232; +00000; +00126; -00229; +00055;
-00236; -00644; +20192; +00000; -00060; -00146; +00047;
-00764; -00400; +21308; +00000; -00039; -00049; +00043;
+01348; -00568; +17752; +00000; +00252; -00075; +00022;
+00912; -01200; +15512; +00000; +00446; -00194; +00010;
-01204; -00128; +19808; +00000; +00190; -00085; +00027;
+02032; -01084; +21268; +00000; -00083; +00097; +00029;
+01108; -01904; +16744; +00000; +00090; -00007; +00014;
+00308; -00916; +13988; +00000; +00319; -00113; +00020;
+00396; +00352; +20168; +00000; +00150; +00064; +00002;
+00148; -00156; +20644; +00000; -00034; +00281; +00006;
+00948; -01464; +15704; +00000; +00116; +00143; -00003;
-00800; -01108; +15112; +00000; +00232; +00031; -00003;
+00252; -00268; +20884; +00000; +00026; +00228; +00010;
+00624; -00384; +21264; +00000; -00101; +00354; +00002;
+00404; -01308; +14652; +00000; +00132; +00159; +00003;
-01280; -01560; +15144; +00000; +00251; +00011; +00002;
-01376; +00500; +22500; +00000; -00012; +00218; +00011;
-01180; +00700; +21844; +00000; -00118; +00323; +00004;
-00300; -01528; +15600; +00000; +00222; +00057; +00009;
-01244; -01152; +16052; +00000; +00351; -00104; +00016;
-01352; -00596; +22432; +00000; +00033; +00097; +00045;
+00420; -00732; +19104; +00000; -00096; +00103; +00044;
-01504; -00592; +15528; +00000; +00151; -00146; +00059;
-00296; -00852; +17168; +00000; +00234; -00144; +00065;
-00592; -00376; +19400; +00000; +00073; -00007; +00054;
-00900; +00320; +17648; +00000; +00019; -00008; +00076;
+00372; -01452; +17264; +00000; +00065; -00075; +00079;
-00136; -00968; +17492; +00000; +00027; -00036; +00074;
+00540; -00392; +18168; +00000; -00052; -00037; +00076;
+00872; -01080; +18364; +00000; -00084; -00055; +00064;
+00024; -00572; +17496; +00000; -00064; -00062; +00057;
+00928; -00684; +18068; +00000; -00052; -00119; +00041;
-00224; +00204; +18536; +00000; -00100; -00095; +00039;
+00276; -00896; +18592; +00000; -00122; -00067; +00037;
-00384; -00736; +17612; +00000; -00106; -00111; +00040;
+00968; -01460; +18596; +00000; -00174; -00118; +00027;
+00440; -00376; +19376; +00000; -00232; -00088; +00019;
-00100; -00596; +17608; +00000; -00161; -00164; +00003;
+00228; -01152; +17336; +00000; -00082; -00224; -00003;
+00352; -01372; +19656; +00000; -00174; -00154; -00021;
-00676; +00540; +19064; +00000; -00257; -00076; -00008;
+00144; -00376; +18608; +00000; -00167; -00134; -00018;
-00640; -00900; +17208; +00000; -00016; -00156; -00004;
+00220; -02056; +17836; +00000; -00024; -00118; -00002;
-00836; -00660; +17684; +00000; -00195; -00100; +00011;
+00712; -01428; +20252; +00000; -00319; -00088; +00006;
+00120; +00200; +19736; +00000; -00243; -00062; -00001;
-00776; -01132; +17836; +00000; -00050; -00091; -00005;
-00848; -00312; +17740; +00000; +00033; -00105; +00009;
+00572; -01956; +20840; +00000; -00100; -00023; +00012;
-00588; -00572; +19216; +00000; -00202; -00007; +00020;
+00316; -00956; +17584; +00000; -00135; -00142; +00028;
+00624; -01772; +17988; +00000; -00078; -00147; +00020;
+00316; -01792; +19272; +00000; -00100; -00068; +00014;
-00268; +01016; +19304; +00000; -00122; -00045; +00021;
+00560; -00528; +19340; +00000; -00029; -00080; +00012;
-01044; -02488; +17020; +00000; +00088; -00058; +00028;
+00512; -02536; +19196; +00000; +00019; -00002; +00036;
-00772; +00468; +18592; +00000; -00115; +00050; +00043;
+01264; -00036; +19884; +00000; -00009; -00051; +00041;
-00432; -00584; +18588; +00000; +00196; -00098; +00029;
+00440; -00532; +18276; +00000; +00296; -00056; +00037;
+00604; -02168; +17992; +00000; +00217; -00076; +00022;
-00820; -02028; +17644; +00000; +00103; -00125; +00039;
+01156; -01432; +20648; +00000; -00033; -00134; +00026;
+01128; +00368; +19400; +00000; -00002; -00108; +00016;
-00708; +00472; +19000; +00000; +00245; -00121; +00013;
+00420; -00188; +18092; +00000; +00490; -00006; +00033;
+00452; -02100; +14820; +00000; +00540; -00006; +00030;
+01324; -02540; +17040; +00000; +00271; +00027; +00071;
-01244; -02188; +21368; +00000; -00165; +00229; +00055;
+00544; +00912; +21740; +00000; -00157; +00399; +00067;
+04008; -02132; +16444; +00000; +00362; +00109; -00002;
-02636; +01336; +13076; +00000; +00697; -00044; +00016;
+01692; -00836; +21756; +00000; +00391; +00193; +00036;
-00156; -00616; +19864; +00000; +00102; +00400; +00024;
+00168; -02036; +14448; +00000; +00310; +00114; +00057;
-00412; -01028; +16764; +00000; +00329; -00012; +00042;
-00772; -00112; +20196; +00000; +00051; +00246; +00041;
+02412; -02276; +17928; +00000; +00044; +00146; +00003;
-01900; -00188; +16224; +00000; +00235; -00067; +00004;
-00368; +00020; +20528; +00000; +00231; +00121; +00021;
-00400; +00108; +19360; +00000; +00256; +00203; -00012;
+00452; -00672; +15788; +00000; +00458; -00002; +00021;
-00044; -02144; +18468; +00000; +00341; +00009; +00017;
+00168; -01392; +18292; +00000; +00037; +00210; +00026;
-00080; -02452; +16892; +00000; +00010; +00117; +00003;
-01600; -00952; +14720; +00000; +00145; +00008; +00006;
+01724; -00088; +19616; +00000; +00120; +00095; -00019;
-00856; +00372; +19568; +00000; +00148; +00116; -00043;
-03680; +01536; +17944; +00000; +00380; +00021; -00019;
-01092; -03116; +14752; +00000; +00499; -00149; -00010;
+01728; -02688; +19964; +00000; +00127; -00136; -00019;
-00780; -01276; +19360; +00000; -00249; -00007; -00008;
+01104; -01264; +14848; +00000; -00099; -00180; -00018;
-03152; +01008; +17892; +00000; +00137; -00282; -00046;
+03048; +00492; +19212; +00000; +00272; -00023; -00040;
-00376; -02104; +16736; +00000; +00360; -00130; -00092;
-00180; +00208; +13168; +00000; +00199; -00235; -00028;
+04532; -03356; +20668; +00000; -00231; -00144; -00083;
-01876; +01376; +19988; +00000; -00383; +00197; -00047;
+00688; -02244; +16276; +00000; +00041; +00067; -00058;
-02944; -01024; +11760; +00000; +00416; -00132; -00079;
+00012; -00848; +20108; +00000; +00144; -00041; -00071;
+01604; +00244; +22264; +00000; -00358; +00147; -00099;
-00140; -00888; +18504; +00000; -00175; -00055; -00090;
-00036; +00060; +17784; +00000; +00226; -00267; -00076;
+02124; -02716; +22416; +00000; +00243; +00028; -00091;
-01932; +00232; +16432; +00000; +00173; +00112; -00061;
+01276; -02656; +15604; +00000; +00126; -00141; -00034;
-02220; -01696; +18564; +00000; -00118; +00004; -00029;
+00688; -01744; +23860; +00000; -00268; +00373; -00022;
+01024; +02248; +18060; +00000; +00056; +00196; -00061;
+00776; +00688; +12960; +00000; +00529; -00183; -00057;
+00792; -02436; +19156; +00000; +00445; -00111; -00061;
+01096; -01608; +22688; +00000; -00014; +00305; -00032;
-02480; -01268; +16880; +00000; -00082; +00267; -00023;
-00368; -01016; +14620; +00000; +00138; +00005; -00007;
-00092; -01844; +21424; +00000; +00077; +00106; -00053;
+00184; +00936; +19424; +00000; +00003; +00301; -00025;
+01664; -01288; +16568; +00000; +00152; +00016; -00054;
-03188; -00460; +16080; +00000; +00222; -00038; -00019;
+01128; -03448; +23180; +00000; +00050; +00193; -00003;
-00060; -00204; +17356; +00000; -00027; +00252; -00004;
-00920; +01040; +16524; +00000; +00120; -00009; +00015;
-00452; +00160; +20896; +00000; +00116; +00076; +00013;
+01624; -03992; +19480; +00000; +00134; +00225; -00011;
-01100; -01848; +14276; +00000; +00241; -00036; -00003;
-00748; -01024; +20460; +00000; +00018; -00036; +00011;
-00156; +00220; +23444; +00000; -00205; +00255; -00006;
+01732; -01328; +17508; +00000; +00155; +00051; -00030;
-00040; -00980; +12916; +00000; +00575; -00276; -00037;
-02240; -00632; +18568; +00000; +00384; -00117; -00025;
-00672; +00492; +20236; +00000; +00035; +00087; -00007;
+01872; -02744; +18008; +00000; +00084; -00087; -00024;
-00204; -02020; +14916; +00000; +00269; -00186; -00030;
-01252; -00276; +18972; +00000; +00225; -00063; -00036;
+01348; +01284; +20684; +00000; +00163; +00033; -00041;
+02236; -02388; +18620; +00000; +00283; +00013; -00076;
-02644; -00188; +13792; +00000; +00442; +00007; -00048;
-00064; -00012; +16732; +00000; +00299; +00096; -00018;
+04380; -00820; +20448; +00000; +00050; +00205; -00043;
-00480; -00868; +16664; +00000; +00096; +00177; -00046;
-00920; +00108; +17996; +00000; +00260; +00140; -00010;
+01720; -02968; +15556; +00000; +00182; +00301; -00040;
+00796; -01552; +17856; +00000; +00120; +00202; -00059;
-00960; +00016; +22776; +00000; -00036; +00301; -00030;
+01012; +00424; +22720; +00000; -00015; +00560; -00039;
+01968; -00552; +13772; +00000; +00453; +00270; -00053;
+00568; -01672; +12808; +00000; +00651; -00122; -00045;
-00292; -01920; +22588; +00000; +00100; +00202; -00016;
+00440; -01348; +21004; +00000; -00365; +00595; -00015;
-01432; +00028; +14500; +00000; -00068; +00252; -00015;
+00004; +00784; +18860; +00000; +00240; +00209; -00014;
+00724; -01724; +22192; +00000; +00257; +00584; -00044;
-00360; -00772; +14712; +00000; +00246; +00467; -00024;
-00188; -02184; +17088; +00000; +00093; +00209; -00011;
+00384; -00384; +24128; +00000; -00179; +00548; +00004;
-01236; +00732; +19304; +00000; -00077; +00748; +00020;
-00028; -00792; +11148; +00000; +00414; +00402; +00037;
+00996; -00196; +11992; +00000; +00490; +00255; +00017;
-02648; -01496; +16256; +00000; +00099; +00390; +00056;
-00444; -01912; +17588; +00000; -00384; +00433; +00084;
+01160; +00216; +21040; +00000; -00573; +00391; +00052;
+01736; -00540; +17384; +00000; -00240; +00253; +00031;
-02204; -01144; +15928; +00000; +00163; +00052; +00028;
-00984; +00620; +20592; +00000; +00054; +00262; +00069;
+01224; -01604; +21956; +00000; -00176; +00405; +00045;
-01728; -01508; +16304; +00000; -00056; +00168; +00074;
-00032; -01832; +18176; +00000; -00025; +00019; +00073;
+00444; -01560; +20580; +00000; -00198; +00144; +00057;
+01416; -01220; +18504; +00000; -00136; +00001; +00024;
-00928; +00284; +18316; +00000; +00089; -00207; +00008;
-00308; -00324; +17992; +00000; +00198; -00156; +00001;
-02068; -00144; +18020; +00000; +00201; -00143; +00001;
-00492; -02184; +21148; +00000; +00100; -00066; +00009;
-00972; -01144; +18644; +00000; +00090; +00010; +00016;
+02228; -01760; +17768; +00000; +00174; -00109; +00013;
-00560; -00492; +19892; +00000; +00083; -00119; -00005;
+02176; -01236; +21608; +00000; +00029; +00073; +00007;
+00672; -00708; +16468; +00000; +00255; -00008; -00019;
-00980; -00732; +15904; +00000; +00407; -00044; +00009;
-01648; +00244; +22732; +00000; +00212; +00218; +00002;
+01896; -00880; +18588; +00000; +00191; +00334; +00013;
+02728; -02480; +11380; +00000; +00368; +00014; -00007;
-00476; -00528; +15480; +00000; +00181; +00033; +00019;
+01588; -01920; +23972; +00000; -00180; +00488; +00016;
-00508; -00844; +20128; +00000; -00026; +00640; +00011;
+00308; +02124; +16064; +00000; +00467; +00313; +00004;
-00020; -01152; +14516; +00000; +00603; +00103; -00015;
-01528; -01864; +24188; +00000; +00203; +00214; -00002;
-00052; -03224; +25784; +00000; -00067; +00452; +00026;
-00168; +00912; +15496; +00000; +00263; +00309; +00033;
+00784; -02188; +10180; +00000; +00798; -00164; +00000;
-03920; -00708; +16904; +00000; +00740; -00132; +00018;
+00700; -02244; +22504; +00000; +00343; +00324; +00053;
-00972; -00444; +15024; +00000; +00347; +00198; +00021;
-01644; +02020; +17524; +00000; +00592; -00122; +00048;
+00820; -02792; +18224; +00000; +00658; -00055; +00017;
-01364; -00800; +18452; +00000; +00605; +00072; +00037;
-00664; -00928; +18452; +00000; +00530; +00047; +00063;
-00364; +01140; +16784; +00000; +00543; +00036; +00054;
-01016; -01400; +17532; +00000; +00671; -00040; +00056;
-02860; -00212; +16796; +00000; +00664; -00046; +00069;
+01236; -00816; +18340; +00000; +00485; +00035; +00089;
+01176; -00440; +18400; +00000; +00345; -00024; +00054;
-01152; -00056; +19244; +00000; +00353; -00027; +00065;
+01032; -01356; +18168; +00000; +00454; +00044; +00054;
+01472; -00384; +14168; +00000; +00576; -00077; +00041;
-00416; -00708; +16864; +00000; +00397; -00110; +00051;
+00144; +00068; +20740; +00000; +00078; +00085; +00048;
+01424; -01256; +17264; +00000; +00111; +00090; +00035;
+01012; -00820; +13584; +00000; +00358; -00122; +00019;
+00056; +00084; +17728; +00000; +00268; -00089; +00019;
-00452; -00140; +20596; +00000; -00016; +00109; +00008;
+00356; -01544; +17652; +00000; +00016; +00011; -00002;
+00344; -01308; +15860; +00000; +00150; -00136; -00009;
-00184; -00632; +18432; +00000; +00036; -00064; -00009;
-01620; -00152; +19232; +00000; -00126; -00030; -00010;
-00116; -00816; +17840; +00000; -00088; -00094; +00011;
+00128; -00824; +15632; +00000; +00023; -00182; -00006;
-01480; -00008; +13560; +00000; +00001; -00245; +00015;
-00420; -01252; +16728; +00000; -00220; -00191; +00025;
+00224; -00720; +20044; +00000; -00403; -00014; +00024;
-01692; -00736; +15768; +00000; -00269; -00024; +00033;
-00620; -01352; +12584; +00000; -00099; -00259; +00044;
+02420; -01252; +21180; +00000; -00382; -00167; +00036;
-01136; +00208; +24548; +00000; -00637; +00169; +00033;
-01388; +00672; +15316; +00000; -00198; +00002; +00076;
+02556; -03064; +15120; +00000; +00145; -00272; +00046;
-02060; -00812; +20344; +00000; -00197; -00040; +00067;
+00848; -00372; +24404; +00000; -00607; +00177; +00089;
+00224; -00424; +18496; +00000; -00366; -00067; +00060;
+00900; -02048; +15512; +00000; +00087; -00291; +00056;
-00284; -01860; +19804; +00000; +00025; -00193; +00046;
+00528; -00104; +22560; +00000; -00295; -00019; +00060;
+00080; -00776; +19256; +00000; -00218; -00153; +00052;
+00196; -01880; +17628; +00000; +00054; -00269; +00060;
+00572; -01900; +20648; +00000; +00042; -00150; +00047;
+00048; +00612; +19932; +00000; -00049; -00075; +00051;
+00808; -00652; +19428; +00000; +00065; -00208; +00047;
+00748; -02276; +17992; +00000; +00178; -00210; +00043;
-00040; -01408; +19576; +00000; +00102; -00106; +00040;
+00152; -00312; +20184; +00000; +00007; -00027; +00048;
+00424; -00780; +19616; +00000; +00092; -00012; +00040;
-00224; -01540; +17816; +00000; +00281; -00041; +00047;
+01312; -01524; +18428; +00000; +00288; -00046; +00040;
-00224; -00828; +18860; +00000; +00134; -00004; +00043;
+00320; -00284; +19900; +00000; +00060; +00054; +00055;
+00400; -01212; +19296; +00000; +00191; +00028; +00040;
+00556; -00072; +16744; +00000; +00374; -00004; +00042;
+00376; -01136; +17532; +00000; +00368; -00008; +00044;
+00468; -01532; +19532; +00000; +00221; +00109; +00053;
+00284; -00912; +17108; +00000; +00206; +00130; +00063;
+00236; -01164; +16816; +00000; +00327; +00074; +00063;
-00068; -00628; +16624; +00000; +00376; +00096; +00060;
+01476; -00964; +19160; +00000; +00327; +00129; +00050;
-00264; -00592; +17012; +00000; +00310; +00121; +00054;
+00196; -01120; +16684; +00000; +00334; +00079; +00056;
-00360; -00760; +17792; +00000; +00315; +00118; +00056;
-00320; -00348; +18860; +00000; +00328; +00143; +00060;
-00516; -00708; +17356; +00000; +00402; +00064; +00062;
+00720; -01372; +16684; +00000; +00401; -00004; +00053;
+00376; -02120; +18256; +00000; +00306; -00016; +00046;
-01080; -00096; +17888; +00000; +00252; -00005; +00055;
+00288; +00320; +19056; +00000; +00300; -00006; +00052;
-00304; -00876; +18228; +00000; +00406; +00024; +00047;
-00412; -00292; +16456; +00000; +00481; -00009; +00055;
+00572; -01100; +17444; +00000; +00386; -00015; +00059;
+00228; -01252; +18812; +00000; +00234; +00011; +00055;
+00360; -01016; +18688; +00000; +00178; +00040; +00057;
+00608; -00416; +17644; +00000; +00241; +00067; +00040;
-00156; -00116; +16152; +00000; +00353; +00038; +00035;
+00708; -00564; +17640; +00000; +00320; +00067; +00032;
-00776; -00692; +19112; +00000; +00181; +00181; +00043;
+01452; -01508; +18804; +00000; +00133; +00238; +00049;
+00124; -00900; +14880; +00000; +00219; +00132; +00042;
-00012; -01184; +16692; +00000; +00182; +00102; +00054;
+01596; -00664; +19832; +00000; -00005; +00185; +00046;
+00000; +00164; +18916; +00000; -00049; +00224; +00041;
-00236; -00768; +15176; +00000; +00164; +00107; +00049;
+01016; -01956; +15580; +00000; +00220; +00052; +00044;
-00492; -01324; +18664; +00000; -00004; +00149; +00053;
-00752; +00100; +18776; +00000; -00151; +00177; +00065;
+01428; -00740; +18676; +00000; -00024; +00120; +00058;
-00320; -01440; +15688; +00000; +00184; +00067; +00043;
-00820; -00652; +17444; +00000; +00185; +00055; +00061;
+00224; -01312; +19480; +00000; +00009; +00109; +00058;
-00576; -01116; +17512; +00000; -00008; +00067; +00065;
-00340; -00780; +18944; +00000; +00065; +00007; +00063;
+00060; +00176; +19340; +00000; +00112; +00061; +00054;
-00500; -00424; +17480; +00000; +00219; -00022; +00058;
-00160; -01452; +17608; +00000; +00223; -00081; +00070;
+00196; -01668; +19724; +00000; +00047; +00013; +00069;
-00656; -00768; +17836; +00000; +00029; +00008; +00066;
-00760; -00708; +16780; +00000; +00174; -00108; +00071;
+00588; -01328; +19640; +00000; +00146; -00031; +00063;
-01436; +00340; +18912; +00000; +00032; +00042; +00060;
+00604; -01004; +17052; +00000; +00092; -00121; +00069;
+01208; -01840; +19928; +00000; +00097; -00129; +00044;
-00684; -00220; +18992; +00000; +00062; -00019; +00055;
+00416; +00172; +16388; +00000; +00122; -00110; +00048;
+00156; -01204; +17976; +00000; +00152; -00175; +00048;
+00748; -02488; +19924; +00000; +00055; -00069; +00046;
+00032; -00908; +18680; +00000; -00037; -00031; +00042;
+00252; +00588; +16760; +00000; +00000; -00119; +00033;
+00600; -00616; +19636; +00000; +00073; -00140; +00020;
+00628; -01864; +19440; +00000; +00118; -00037; +00025;
+00352; -00204; +17260; +00000; +00145; -00081; +00025;
-00496; +00148; +18232; +00000; +00114; -00163; +00028;
+01348; -02076; +19316; +00000; +00042; -00110; +00024;
+00500; -02320; +18348; +00000; +00012; -00049; +00013;
-01392; -00284; +16592; +00000; +00067; -00048; +00026;
+00592; +00096; +18900; +00000; +00104; -00061; +00022;
+00588; -00880; +19236; +00000; +00080; +00005; +00014;
+00392; -01416; +16272; +00000; +00091; -00005; +00020;
+00040; -00500; +16924; +00000; +00104; -00064; +00020;
+01156; -01512; +19408; +00000; +00070; +00010; +00025;
-00564; -01956; +19088; +00000; +00059; +00117; +00025;
-00124; -00544; +16676; +00000; +00118; +00161; +00047;
-00040; -00596; +17928; +00000; +00163; +00134; +00028;
-00312; +00040; +18688; +00000; +00207; +00161; +00044;
+01540; -01708; +19292; +00000; +00235; +00157; +00034;
-00416; -00752; +16996; +00000; +00257; +00173; +00045;
+00312; -01212; +18904; +00000; +00265; +00163; +00058;
-00352; -00696; +19384; +00000; +00241; +00215; +00063;
+00580; -01196; +18568; +00000; +00276; +00229; +00070;
+00328; -00776; +16504; +00000; +00365; +00125; +00064;
+00096; -00308; +17368; +00000; +00378; +00100; +00065;
-00008; -01368; +18560; +00000; +00338; +00103; +00068;
+00348; -00828; +17984; +00000; +00296; +00120; +00069;
-00420; -00200; +17920; +00000; +00307; +00064; +00072;
-00304; -00384; +18188; +00000; +00298; +00037; +00068;
+00528; -01508; +18760; +00000; +00307; +00026; +00063;
-00584; -00540; +18552; +00000; +00314; +00007; +00065;
+00388; -00472; +19628; +00000; +00285; +00037; +00069;
+00268; -00460; +18576; +00000; +00299; +00025; +00053;
-00080; -00588; +17212; +00000; +00360; -00022; +00063;
-00076; -00928; +18012; +00000; +00321; -00026; +00057;
-00156; -00300; +19508; +00000; +00215; +00044; +00063;
+00100; -00832; +17572; +00000; +00215; +00020; +00059;
+00000; -00904; +17332; +00000; +00272; -00019; +00064;
+00588; -00828; +18584; +00000; +00218; +00029; +00048;
+00400; -01092; +16836; +00000; +00178; +00026; +00042;
+01036; -00832; +17068; +00000; +00183; -00028; +00037;
-00016; -00452; +18404; +00000; +00129; +00043; +00041;
+00016; -00676; +16752; +00000; +00103; +00130; +00047;
+00120; -00832; +14540; +00000; +00150; +00035; +00044;
+00800; -01156; +16476; +00000; +00059; +00066; +00050;
-00412; -00456; +18664; +00000; -00101; +00185; +00039;
+00860; +00028; +17564; +00000; -00052; +00185; +00045;
+00832; -01296; +15548; +00000; +00101; +00083; +00026;
-00080; -01084; +17348; +00000; +00059; +00107; +00043;
+00792; -01264; +20216; +00000; -00171; +00215; +00037;
+00384; -00636; +19392; +00000; -00173; +00208; +00042;
+00580; -00972; +17452; +00000; +00046; +00125; +00038;
+00068; -00796; +17304; +00000; +00171; +00098; +00039;
+00076; -00092; +19248; +00000; +00057; +00148; +00044;
-00268; -01528; +19244; +00000; -00032; +00167; +00050;
-00200; -01748; +18344; +00000; +00056; +00116; +00048;
-00140; -01524; +18124; +00000; +00140; +00106; +00050;
-00548; -00568; +18944; +00000; +00116; +00126; +00044;
+00208; -00512; +18360; +00000; +00114; +00112; +00053;
+00304; -01832; +17988; +00000; +00170; +00094; +00051;
+00076; -00820; +18192; +00000; +00190; +00120; +00061;
-00864; -00452; +18884; +00000; +00141; +00149; +00061;
+00028; -00604; +18932; +00000; +00137; +00140; +00069;
+00588; -02276; +18464; +00000; +00170; +00091; +00057;
-00532; -01156; +17548; +00000; +00155; +00085; +00064;
+00256; -00956; +19576; +00000; +00086; +00111; +00059;
+00156; -00556; +20160; +00000; +00096; +00157; +00056;
+00728; -01276; +18648; +00000; +00236; +00137; +00058;
+00016; -01344; +17052; +00000; +00292; +00123; +00066;
+00716; -01304; +18524; +00000; +00169; +00132; +00067;
+00840; -01348; +19192; +00000; +00065; +00160; +00060;
-00328; -01316; +17420; +00000; +00174; +00144; +00059;
+00144; -01196; +16948; +00000; +00279; +00122; +00054;
+00800; -01352; +17308; +00000; +00234; +00122; +00038;
-00084; -01812; +17948; +00000; +00144; +00097; +00038;
-00568; -01020; +19684; +00000; +00094; +00114; +00046;
+00408; -01080; +18664; +00000; +00161; +00095; +00031;
+00468; -00764; +17796; +00000; +00281; +00009; +00022;
-00652; -01804; +17704; +00000; +00248; +00019; +00028;
-00144; -01560; +18704; +00000; +00119; +00065; +00029;
-00036; -01344; +18132; +00000; +00093; +00032; +00026;
-00696; -01516; +17568; +00000; +00149; +00006; +00028;
-00476; -00540; +17732; +00000; +00155; +00045; +00031;
+00624; -00948; +18372; +00000; +00099; +00015; +00028;
-00312; -01256; +17404; +00000; +00054; -00038; +00020;
-00604; -01840; +17164; +00000; +00051; -00042; +00027;
+00284; -01816; +17548; +00000; +00044; -00057; +00019;
-00404; -00552; +17164; +00000; +00006; -00064; +00025;
-00048; -01400; +19192; +00000; -00026; -00082; +00022;
-00312; -01788; +17620; +00000; -00003; -00054; +00021;
-00644; -02184; +16620; +00000; +00063; -00130; +00024;
+00560; -01280; +18924; +00000; -00014; -00168; +00025;
-00300; -01008; +20236; +00000; -00118; -00092; +00018;
+00564; -01960; +16596; +00000; +00038; -00155; +00023;
+01084; -01840; +16540; +00000; +00171; -00227; +00006;
-00824; -01160; +18748; +00000; +00073; -00137; +00014;
+00576; -00768; +19844; +00000; -00064; -00012; +00019;
+00868; -01964; +17732; +00000; +00011; -00026; +00007;
+00108; -01156; +16484; +00000; +00142; -00013; +00011;
+01384; -01432; +19456; +00000; +00099; +00060; -00002;
+00428; -01840; +18928; +00000; +00048; +00128; -00008;
+01136; -01980; +17388; +00000; +00111; +00089; -00013;
-00344; -01084; +18352; +00000; +00114; +00093; -00017;
+00104; -00876; +19188; +00000; +00032; +00212; -00014;
+00740; -02236; +18504; +00000; +00063; +00185; -00033;
-00116; -01444; +16928; +00000; +00141; +00139; -00030;
-00220; -01020; +19112; +00000; +00097; +00182; -00039;
-00092; -00728; +19516; +00000; +00060; +00219; -00034;
+00168; -02212; +18004; +00000; +00098; +00151; -00043;
-00940; -01168; +18008; +00000; +00048; +00142; -00033;
+00820; -01996; +20136; +00000; -00052; +00161; -00055;
-02024; -00592; +17864; +00000; +00038; +00039; -00057;
+00104; -01448; +18696; +00000; +00154; -00047; -00056;
-01292; -01684; +19372; +00000; +00128; -00022; -00061;
-00952; -01296; +18056; +00000; +00104; -00072; -00048;
-01332; -01216; +17228; +00000; +00114; -00184; -00051;
-00332; -01632; +18868; +00000; +00122; -00184; -00045;
-00896; -01548; +18672; +00000; +00116; -00214; -00052;
-00612; -00964; +17116; +00000; +00118; -00306; -00046;
-00452; -01776; +17804; +00000; +00091; -00346; -00057;
-01176; -00392; +19324; +00000; +00086; -00298; -00046;
-00596; +00260; +19492; +00000; +00184; -00286; -00049;
-00320; -00020; +16224; +00000; +00354; -00399; -00045;
+01056; -03000; +15944; +00000; +00351; -00541; -00040;
-00540; -02460; +18448; +00000; +00020; -00511; -00021;
+02840; -03648; +20600; +00000; -00268; -00357; -00039;
+00568; -00864; +17908; +00000; -00019; -00469; -00080;
-01168; +03472; +15596; +00000; +00372; -00482; -00041;
+05220; -04840; +21468; +00000; +00410; -00299; -00087;
-00004; -00552; +14904; +00000; +00269; -00122; -00066;
+00936; -02048; +20348; +00000; +00197; +00005; -00028;
+02004; +00592; +19144; +00000; +00225; +00259; -00027;
+01612; -00772; +18052; +00000; +00418; +00330; -00045;
-00344; +00288; +15888; +00000; +00565; +00413; -00021;
+02920; -02508; +19892; +00000; +00486; +00559; -00029;
+01480; -02592; +18840; +00000; +00339; +00665; -00031;
-00692; +00632; +18564; +00000; +00315; +00647; -00015;
+01056; -00536; +19228; +00000; +00429; +00704; -00020;
+02156; -01828; +16232; +00000; +00642; +00653; -00044;
-01168; +00708; +15072; +00000; +00668; +00522; -00034;
+00196; -00508; +18788; +00000; +00420; +00577; -00012;
-01204; -02516; +18836; +00000; +00243; +00667; -00016;
-01408; -02292; +17756; +00000; +00275; +00622; +00016;
-01268; -00360; +17940; +00000; +00291; +00575; +00016;
-00284; +00692; +19876; +00000; +00329; +00569; +00030;
-00876; -01192; +19512; +00000; +00436; +00522; +00038;
-00852; -00800; +17388; +00000; +00499; +00512; +00067;
+00360; -01308; +17284; +00000; +00440; +00444; +00074;
-01848; -00232; +17440; +00000; +00336; +00420; +00104;
-02396; -01804; +22708; +00000; +00273; +00501; +00113;
-03376; +01248; +19304; +00000; +00354; +00561; +00134;
+00992; -01344; +15896; +00000; +00586; +00289; +00154;
+03544; -02924; +16260; +00000; +00527; +00053; +00126;
+02788; -02400; +20136; +00000; +00267; +00081; +00108;
-04120; +00724; +13000; +00000; +00221; +00049; +00137;
+02584; -00124; +16924; +00000; +00327; -00013; +00119;
+02752; -01028; +09620; +00000; +00510; -00031; +00062;
-01020; -02420; +09192; +00000; +00490; -00071; +00091;
+03516; -00668; +16636; +00000; -00094; -00053; +00037;
+01376; +00872; +18284; +00000; -00486; +00189; -00001;
-00076; -00360; +19316; +00000; -00204; +00215; -00025;
+01808; -01416; +14768; +00000; +00288; +00211; -00052;
-00468; +00584; +16916; +00000; +00342; +00244; -00109;
+00476; -00404; +19064; +00000; +00034; +00307; -00063;
+02260; -02576; +24420; +00000; -00344; +00418; -00103;
-01500; -01692; +21056; +00000; -00270; +00589; -00066;
-00144; -00112; +17208; +00000; +00177; +00383; -00088;
-00400; -00316; +18280; +00000; +00398; +00251; -00096;
-01076; -01604; +20920; +00000; +00180; +00422; -00088;
-01140; -01312; +19716; +00000; +00024; +00495; -00060;
+00888; -00248; +19316; +00000; +00190; +00392; -00049;
-00492; -01168; +17924; +00000; +00422; +00402; -00037;
-02324; -00636; +18012; +00000; +00433; +00515; -00002;
+01764; -01664; +20272; +00000; +00288; +00550; +00010;
-00812; -00556; +20020; +00000; +00198; +00547; +00012;
-01860; +00376; +20332; +00000; +00227; +00607; +00048;
-00092; -01016; +18540; +00000; +00359; +00573; +00042;
+00156; -01984; +17000; +00000; +00456; +00477; +00055;
-01204; -01792; +19076; +00000; +00295; +00457; +00077;
-00648; +00368; +20492; +00000; +00070; +00520; +00096;
-00296; -00768; +17692; +00000; +00153; +00407; +00087;
-01056; -01520; +14052; +00000; +00376; +00213; +00101;
+00284; -01828; +18576; +00000; +00235; +00280; +00100;
-01828; +00260; +17916; +00000; +00010; +00311; +00101;
-00396; -00056; +17160; +00000; +00083; +00107; +00112;
+00164; -01560; +18428; +00000; +00194; +00059; +00103;
-01172; -00668; +16916; +00000; +00206; +00111; +00118;
-00688; -00088; +16904; +00000; +00175; -00061; +00118;
+00084; -00708; +19252; +00000; +00102; -00144; +00117;
-00436; -02192; +19384; +00000; +00117; -00116; +00107;
-00312; -00092; +16428; +00000; +00236; -00240; +00108;
+00528; +00080; +19352; +00000; +00250; -00305; +00089;
-00348; -00220; +19232; +00000; +00260; -00220; +00088;
+00660; -00944; +16240; +00000; +00368; -00274; +00095;
-00204; -00968; +15848; +00000; +00325; -00321; +00096;
+00456; -00336; +17880; +00000; +00120; -00226; +00106;
+01052; -01440; +17740; +00000; +00044; -00210; +00090;
+00332; -01012; +15888; +00000; +00110; -00249; +00087;
+00040; -00188; +18164; +00000; +00061; -00205; +00067;
+00092; +00080; +18616; +00000; +00004; -00144; +00067;
+01480; -01528; +17656; +00000; +00039; -00194; +00060;
-00592; -00648; +18156; +00000; +00009; -00184; +00064;
+00576; -00312; +19104; +00000; -00067; -00126; +00077;
+00860; -01156; +18672; +00000; -00056; -00150; +00063;
-00136; -01112; +16716; +00000; +00006; -00203; +00071;
+00588; -01204; +19176; +00000; -00080; -00169; +00068;
-00352; -00352; +19680; +00000; -00173; -00084; +00071;
-00540; -00584; +18644; +00000; -00088; -00105; +00087;
-00116; -01176; +17812; +00000; +00013; -00112; +00097;
+00396; -00544; +18936; +00000; -00012; -00097; +00103;
-00408; -00828; +19896; +00000; -00063; -00095; +00115;
+00400; -01616; +18944; +00000; -00015; -00102; +00118;
-00184; -01208; +17828; +00000; +00061; -00138; +00117;
-00788; -00536; +18868; +00000; +00066; -00121; +00126;
+00216; -00644; +19760; +00000; +00074; -00089; +00129;
+00060; -00408; +18748; +00000; +00186; -00118; +00132;
+00100; -01156; +16296; +00000; +00289; -00204; +00143;
+00524; -01500; +17872; +00000; +00207; -00214; +00148;
-00068; -01192; +18828; +00000; +00059; -00106; +00156;
+00700; -00252; +19244; +00000; +00082; -00058; +00151;
+00568; -00156; +17956; +00000; +00250; -00040; +00147;
+01040; -00824; +17524; +00000; +00318; -00004; +00138;
+00680; -00876; +18488; +00000; +00206; +00057; +00141;
+00712; -01660; +19112; +00000; +00101; +00078; +00141;
+00756; -00360; +18896; +00000; +00095; +00105; +00143;
+01988; -00912; +18892; +00000; +00171; +00107; +00125;
+00076; +00088; +17336; +00000; +00251; +00063; +00112;
-00100; -00640; +18036; +00000; +00237; +00048; +00114;
+00168; -01252; +19512; +00000; +00144; +00060; +00102;
-00304; -00440; +18692; +00000; +00099; +00045; +00104;
+00196; -00768; +18200; +00000; +00163; -00028; +00096;
+00532; -00704; +18320; +00000; +00217; -00059; +00096;
+00636; -01024; +17980; +00000; +00195; -00060; +00095;
-00476; -00084; +17948; +00000; +00127; -00030; +00107;
-00324; -00528; +19112; +00000; +00115; +00026; +00122;
-00320; -00988; +17880; +00000; +00152; +00071; +00122;
-00300; -00844; +16976; +00000; +00167; +00057; +00132;
-00060; -00804; +17452; +00000; +00078; +00022; +00138;
+00800; -00596; +18132; +00000; -00027; +00048; +00144;
+00136; -01348; +16960; +00000; -00011; +00012; +00147;
+00096; -00272; +16928; +00000; +00018; +00029; +00162;
-00376; -00852; +18024; +00000; -00013; +00104; +00167;
+00108; -00760; +17868; +00000; -00018; +00135; +00180;
+00596; -00984; +17036; +00000; -00017; +00089; +00183;
+00648; -00604; +18416; +00000; -00085; +00094; +00189;
+00724; -00520; +19124; +00000; -00121; +00150; +00190;
+00832; -01576; +17680; +00000; +00017; +00129; +00190;
+00952; -01348; +16524; +00000; +00124; +00084; +00187;
+00640; -00632; +19172; +00000; +00034; +00106; +00184;
+00008; -00124; +19892; +00000; -00052; +00153; +00185;
+01032; -00564; +18316; +00000; +00078; +00102; +00182;
-00052; -00384; +18104; +00000; +00208; +00054; +00179;
+00444; -00868; +19684; +00000; +00171; +00101; +00186;
+00504; -01836; +18400; +00000; +00132; +00047; +00171;
-00480; -00644; +18112; +00000; +00165; -00058; +00172;
+00088; -00620; +20856; +00000; +00150; -00021; +00165;
-01664; +00116; +19756; +00000; +00186; +00029; +00165;
+00972; -00816; +17120; +00000; +00334; -00078; +00172;
+01200; -01292; +17432; +00000; +00338; -00160; +00156;
-00304; -00472; +17772; +00000; +00187; -00121; +00180;
+00148; -00336; +20500; +00000; +00065; -00062; +00185;
+00432; -00904; +19368; +00000; +00154; +00010; +00181;
+00012; -00888; +16536; +00000; +00331; -00051; +00167;
+00604; -00636; +16956; +00000; +00261; -00127; +00169;
+00436; -01128; +21664; +00000; -00026; -00022; +00160;
+00616; -00588; +20016; +00000; -00052; +00066; +00168;
+01196; -01212; +15932; +00000; +00250; -00092; +00144;
-00692; +00168; +15520; +00000; +00363; -00166; +00149;
+00968; -00608; +19692; +00000; +00107; -00053; +00149;
+00384; -01448; +19288; +00000; -00063; +00035; +00144;
+00920; -00704; +15188; +00000; +00069; -00058; +00143;
+00124; -00520; +17380; +00000; +00143; -00077; +00133;
-00184; -00340; +20372; +00000; +00035; +00070; +00139;
+01140; -01020; +18548; +00000; +00032; +00069; +00129;
+00140; -00832; +14944; +00000; +00164; -00099; +00126;
+00588; -00620; +17444; +00000; +00093; -00127; +00121;
+00196; -00492; +20340; +00000; -00092; +00010; +00115;
+00224; -00912; +17544; +00000; -00024; +00020; +00119;
-00408; -00888; +15116; +00000; +00150; -00097; +00123;
-00184; -00480; +18488; +00000; +00055; -00051; +00124;
+00296; -00480; +19452; +00000; -00109; -00004; +00132;
+00532; -01180; +18712; +00000; -00056; -00069; +00134;
-00372; -01116; +17464; +00000; +00091; -00086; +00142;
-00240; -00392; +18544; +00000; +00114; -00062; +00144;
+00068; -00500; +19616; +00000; +00041; -00051; +00154;
+00876; -01484; +19340; +00000; +00021; -00042; +00158;
+00008; -01236; +18464; +00000; +00074; -00030; +00157;
+00064; -00092; +18208; +00000; +00129; -00030; +00156;
+00440; -00412; +19328; +00000; +00158; +00001; +00160;
+01164; -01128; +19108; +00000; +00174; +00055; +00160;
+00368; -00456; +17696; +00000; +00194; +00037; +00163;
+00444; -00916; +17656; +00000; +00177; +00039; +00170;
+01516; -01188; +19428; +00000; +00115; +00110; +00165;
-00268; -00544; +19476; +00000; +00089; +00185; +00169;
+00384; +00352; +17952; +00000; +00165; +00189; +00175;
+01448; -00580; +17840; +00000; +00244; +00139; +00161;
+00532; -00880; +17924; +00000; +00205; +00167; +00165;
+00556; -01164; +19492; +00000; +00056; +00237; +00174;
-00040; +00244; +19148; +00000; -00018; +00280; +00165;
+01060; -00888; +17516; +00000; +00118; +00187; +00160;
-00712; -00516; +18076; +00000; +00171; +00154; +00154;
+00092; -00524; +19752; +00000; +00039; +00232; +00167;
+00764; -00456; +18892; +00000; -00039; +00194; +00150;
-00172; -00996; +17020; +00000; +00051; +00085; +00160;
-00620; -01548; +17984; +00000; +00046; +00119; +00157;
-00436; +00176; +17820; +00000; -00039; +00180; +00162;
+00444; -00628; +17140; +00000; -00032; +00078; +00151;
+00444; -01232; +17052; +00000; -00045; +00029; +00147;
-00412; -01032; +17760; +00000; -00138; +00079; +00136;
+00088; -00016; +17888; +00000; -00145; +00075; +00135;
-00048; -00308; +18160; +00000; -00048; +00036; +00125;
-00384; -00740; +18160; +00000; -00013; +00054; +00138;
+01340; -01440; +18180; +00000; -00117; +00069; +00121;
-00228; -00560; +17228; +00000; -00178; +00013; +00119;
+00284; -01320; +19912; +00000; -00203; +00078; +00119;
+00248; -00076; +18848; +00000; -00160; +00150; +00107;
+00888; -00156; +17344; +00000; -00043; +00080; +00096;
+00944; -00492; +17660; +00000; -00034; +00030; +00080;
+00104; -01328; +20008; +00000; -00170; +00110; +00079;
+00696; -01368; +19472; +00000; -00230; +00181; +00077;
+00912; -00676; +17688; +00000; -00116; +00135; +00068;
+00448; -00500; +19512; +00000; -00054; +00165; +00060;
-00184; -00224; +20396; +00000; -00095; +00230; +00054;
+00332; -00708; +19316; +00000; -00069; +00192; +00051;
+00664; -02004; +18556; +00000; +00001; +00167; +00046;
-01092; -00412; +18336; +00000; -00001; +00209; +00059;
+01060; -00452; +20600; +00000; -00041; +00233; +00057;
-01312; -00812; +17632; +00000; +00019; +00195; +00054;
-00164; -01792; +17196; +00000; +00089; +00116; +00062;
-00668; -01064; +18848; +00000; -00035; +00163; +00056;
-00984; -00164; +20132; +00000; -00108; +00213; +00057;
-00808; -00356; +18536; +00000; +00068; +00090; +00052;
-00008; -01684; +18564; +00000; +00200; +00034; +00050;
-00788; -01032; +18232; +00000; +00114; +00055; +00060;
+00168; -00732; +19144; +00000; +00007; +00013; +00064;
-00884; -00472; +18352; +00000; +00056; -00036; +00065;
-00228; -01016; +19512; +00000; +00170; -00021; +00058;
-00676; -00388; +18384; +00000; +00232; -00002; +00049;
+01016; -00856; +17064; +00000; +00238; -00055; +00038;
+00052; -01024; +18744; +00000; +00152; -00063; +00030;
+00032; -00524; +20228; +00000; +00073; +00057; +00038;
+00264; -00528; +18652; +00000; +00171; +00103; +00027;
+00584; -00264; +16044; +00000; +00338; +00011; +00014;
+00112; -00972; +17624; +00000; +00263; -00019; +00006;
+00624; -01480; +19944; +00000; +00029; +00086; -00006;
+00484; -00680; +18376; +00000; +00019; +00094; -00018;
+00076; -00288; +16764; +00000; +00212; +00034; -00022;
+00188; -00856; +17208; +00000; +00275; +00068; -00030;
+00212; -00100; +18104; +00000; +00147; +00110; -00033;
+00240; -00364; +17660; +00000; +00057; +00113; -00027;
+00684; -01588; +17060; +00000; +00106; +00084; -00034;
-00452; -00884; +17868; +00000; +00120; +00087; -00039;
-00224; -00416; +19892; +00000; +00030; +00151; -00047;
-00168; -00532; +17508; +00000; +00056; +00124; -00046;
-00256; -01452; +17468; +00000; +00147; +00045; -00045;
-01732; -00212; +18736; +00000; +00102; +00137; -00020;
-00552; -00536; +19524; +00000; +00057; +00207; -00011;
-00628; -00380; +17240; +00000; +00172; +00115; -00001;
+00712; -01432; +17672; +00000; +00216; +00074; +00004;
-01280; -01224; +18064; +00000; +00092; +00140; +00015;
-00416; -00568; +18332; +00000; +00009; +00140; +00023;
-00636; -00496; +19092; +00000; +00063; +00131; +00026;
-00556; -00260; +18388; +00000; +00195; +00149; +00041;
-00392; -00120; +16844; +00000; +00260; +00082; +00049;
+00036; -01220; +17568; +00000; +00172; +00046; +00052;
+00004; -01220; +18812; +00000; +00043; +00072; +00061;
-00452; -00976; +19340; +00000; +00002; +00095; +00061;
-00256; -00756; +17648; +00000; +00093; +00068; +00055;
+00712; -00332; +17268; +00000; +00189; -00002; +00042;
-00120; -00644; +18932; +00000; +00132; +00009; +00045;
-00472; -00612; +19312; +00000; +00046; +00046; +00053;
+00448; -00644; +17124; +00000; +00089; -00006; +00052;
+01120; -01164; +17556; +00000; +00128; -00034; +00041;
-00512; -00188; +18808; +00000; +00056; +00028; +00041;
+00276; -00396; +18208; +00000; +00024; +00022; +00031;
+00016; -01048; +17680; +00000; +00083; -00031; +00020;
+00552; -01156; +19028; +00000; +00072; +00000; +00017;
-00044; -00272; +19452; +00000; +00021; +00027; +00010;
+00412; -00196; +17616; +00000; +00082; -00047; +00003;
+00548; -01208; +17548; +00000; +00143; -00099; -00006;
-00180; -00940; +18144; +00000; +00072; -00030; +00000;
-00112; -00708; +18440; +00000; -00021; +00018; +00000;
-00508; -00064; +17696; +00000; +00006; -00025; -00006;
+00352; -01032; +18012; +00000; +00056; -00038; -00016;
-00628; -00208; +17948; +00000; +00034; -00004; -00012;
+01172; -00788; +19420; +00000; -00006; +00022; -00016;
-00432; -01064; +17268; +00000; +00022; +00008; -00017;
-00148; -01356; +17844; +00000; +00008; +00011; -00004;
+00176; -00532; +19708; +00000; -00097; +00087; -00007;
-00676; +00420; +19052; +00000; -00074; +00112; -00005;
+00192; -00940; +17504; +00000; +00076; +00028; -00005;
-00360; -01624; +17092; +00000; +00100; +00009; -00005;
-00088; -01864; +19168; +00000; -00051; +00058; +00007;
+00024; -00736; +19724; +00000; -00148; +00082; +00002;
+00128; +00256; +18988; +00000; -00013; +00032; -00002;
-00572; -00364; +17848; +00000; +00143; +00031; -00002;
-00636; -00968; +18432; +00000; +00135; +00079; +00012;
+00128; -00840; +19472; +00000; +00015; +00115; +00018;
+00196; -00912; +18556; +00000; +00005; +00084; +00017;
-00052; -00480; +18092; +00000; +00085; +00047; +00017;
+00776; -01184; +18464; +00000; +00116; +00078; +00010;
-01040; -00220; +17668; +00000; +00114; +00082; +00011;
-00596; -00616; +18308; +00000; +00085; +00078; +00026;
+00612; -01232; +19512; +00000; +00035; +00118; +00016;
-00912; -00672; +17864; +00000; +00064; +00116; +00017;
+00108; -00896; +17636; +00000; +00129; +00041; +00024;
+00708; -01368; +18140; +00000; +00087; +00051; +00012;
-00368; -00524; +18420; +00000; +00044; +00080; +00018;
-00340; -00828; +18332; +00000; +00096; +00087; +00029;
+00152; -00900; +17692; +00000; +00173; +00121; +00025;
-00160; -01028; +18460; +00000; +00183; +00130; +00028;
-00596; -00212; +18772; +00000; +00143; +00119; +00032;
+01104; -01260; +18408; +00000; +00139; +00098; +00039;
+00016; -00704; +19068; +00000; +00144; +00112; +00023;
-00584; +00224; +18828; +00000; +00206; +00128; +00029;
+00576; -00884; +18352; +00000; +00309; +00109; +00015;
-00624; -01064; +17560; +00000; +00345; +00079; +00022;
+00296; -01008; +18968; +00000; +00210; +00107; +00031;
+00224; -00052; +19072; +00000; +00117; +00122; +00020;
+00360; -00396; +18304; +00000; +00227; +00087; +00025;
-00404; -00108; +17512; +00000; +00325; +00104; +00019;
-00044; -00500; +18100; +00000; +00301; +00155; +00026;
+00312; -00916; +17424; +00000; +00215; +00110; +00014;
-00404; -00804; +18104; +00000; +00119; +00106; +00019;
+00312; -00692; +19864; +00000; +00058; +00190; +00017;
-00220; -00260; +17516; +00000; +00163; +00168; +00010;
+00200; -00600; +16168; +00000; +00269; +00066; +00015;
-00320; -01140; +18560; +00000; +00142; +00076; +00015;
-00428; -00232; +19996; +00000; -00038; +00165; +00024;
+00064; -01204; +18052; +00000; +00044; +00120; +00015;
+00000; -01064; +15608; +00000; +00233; +00014; +00017;
+00084; -01096; +17616; +00000; +00152; +00019; +00016;
-00896; +00080; +18588; +00000; -00043; +00116; +00025;
+00516; -00432; +18152; +00000; +00016; +00083; +00031;
-00472; -00828; +16656; +00000; +00205; +00041; +00023;
-00060; -00588; +16696; +00000; +00227; +00035; +00031;
+00372; -00640; +18784; +00000; +00037; +00059; +00022;
-00504; -00644; +18932; +00000; -00066; +00101; +00032;
-00008; -00552; +18900; +00000; +00042; +00092; +00024;
+00076; -00504; +17368; +00000; +00174; +00073; +00016;
+00608; -00044; +17824; +00000; +00167; +00032; +00003;
+00024; -00416; +19128; +00000; +00050; +00050; +00014;
+00116; -01592; +18660; +00000; +00012; +00095; +00014;
-00280; -00760; +17120; +00000; +00089; +00086; +00022;
-00348; -00556; +18416; +00000; +00097; +00081; +00015;
-00512; -00084; +18780; +00000; +00025; +00111; +00020;
+00784; -00804; +18740; +00000; +00001; +00086; +00010;
-00548; -01164; +17556; +00000; +00059; +00037; +00008;
-00376; -00480; +18896; +00000; +00066; +00057; +00010;
-00284; -00360; +19420; +00000; +00053; +00085; +00015;
+00124; -01264; +18364; +00000; +00098; +00038; +00016;
-00712; -00956; +16956; +00000; +00110; -00016; +00018;
-00360; -00528; +18628; +00000; +00042; -00015; +00018;
+00100; -00808; +19712; +00000; +00019; +00003; +00007;
-00144; -00392; +17668; +00000; +00111; -00002; +00002;
-00624; -00460; +17736; +00000; +00195; -00034; +00004;
+00776; -00996; +18252; +00000; +00137; +00008; +00005;
-00352; -00784; +18216; +00000; +00050; +00033; +00008;
-00448; -00244; +18608; +00000; +00047; +00062; +00017;
-00080; -00264; +18420; +00000; +00116; +00097; +00004;
+00772; -00220; +17912; +00000; +00217; +00061; -00006;
+00712; -01160; +18052; +00000; +00194; +00035; -00012;
-00792; +00244; +19268; +00000; +00049; +00141; +00002;
+00240; -00888; +20436; +00000; +00043; +00227; +00006;
-00204; -00336; +16872; +00000; +00241; +00154; +00000;
+00056; -00440; +16196; +00000; +00290; +00074; +00005;
+00720; -00584; +19836; +00000; +00052; +00120; +00000;
-00228; -00764; +19464; +00000; -00084; +00191; +00000;
+00096; -00780; +16912; +00000; +00098; +00121; -00003;
+00140; -00784; +16808; +00000; +00234; +00086; -00009;
-00008; -00340; +18828; +00000; +00100; +00145; -00006;
-00472; -00932; +19280; +00000; -00033; +00160; -00001;
-00980; -00356; +17576; +00000; +00047; +00112; +00006;
-00172; -00524; +17736; +00000; +00167; +00080; +00006;
-00080; -00784; +18996; +00000; +00137; +00092; -00002;
-01004; -00204; +18544; +00000; +00067; +00072; +00003;
-00156; -01144; +18252; +00000; +00070; +00069; +00011;
-00296; -00840; +18152; +00000; +00121; +00083; +00014;
-00708; +00212; +17256; +00000; +00164; +00058; +00024;
-00504; +00012; +18324; +00000; +00153; +00025; +00027;
-00248; -00364; +18612; +00000; +00140; +00012; +00028;
+00760; -01204; +17816; +00000; +00156; -00011; +00026;
-00744; -00852; +17420; +00000; +00132; -00032; +00021;
-00724; +00080; +18992; +00000; +00066; -00004; +00029;
+00392; -00312; +20352; +00000; +00045; +00044; +00020;
+00716; -00640; +17280; +00000; +00156; +00016; +00012;
+00344; -00012; +15748; +00000; +00223; -00066; +00006;
+00424; -00304; +19172; +00000; +00084; +00018; +00011;
-00548; -00132; +20152; +00000; -00022; +00164; +00014;
+00860; -00444; +17796; +00000; +00086; +00149; +00023;
+00192; -00688; +16784; +00000; +00132; +00104; +00005;
-00100; -00528; +18540; +00000; +00001; +00096; +00004;
-00476; -00220; +20196; +00000; -00107; +00093; -00007;
+01080; -00996; +18720; +00000; -00006; +00059; -00015;
-00912; +00372; +16860; +00000; +00128; -00010; -00025;
-00136; +00076; +18744; +00000; +00062; +00012; -00009;
-00204; -00888; +18348; +00000; -00061; +00057; -00010;
-00436; -00644; +17168; +00000; -00043; -00010; +00002;
-00568; -00644; +18308; +00000; -00067; -00011; -00004;
+00296; -00220; +18864; +00000; -00108; +00028; -00012;
-00016; -00880; +17300; +00000; -00055; -00040; -00017;
-00904; -00400; +17444; +00000; -00042; -00063; -00010;
-01044; -00104; +19612; +00000; -00136; +00035; +00002;
-00428; -00284; +19932; +00000; -00108; +00044; -00003;
-01044; -00044; +17132; +00000; +00052; -00085; +00002;
+00460; -00964; +18280; +00000; +00023; -00129; +00006;
-00868; -01392; +19364; +00000; -00137; -00115; +00006;
-00304; -01040; +18900; +00000; -00166; -00128; +00013;
-00808; -00508; +18496; +00000; -00052; -00144; +00014;
-00164; +00492; +18212; +00000; +00036; -00129; +00024;
+00884; -00204; +18324; +00000; +00049; -00147; +00017;
+00036; -00600; +16844; +00000; +00052; -00183; +00026;
-00476; -00832; +17716; +00000; +00011; -00186; +00029;
+00652; -00976; +19816; +00000; -00075; -00086; +00029;
+00888; -01208; +18932; +00000; -00055; -00080; +00003;
-00484; +00136; +16876; +00000; +00031; -00177; -00001;
+00496; -00676; +20952; +00000; -00007; -00147; -00008;
-00296; -00268; +21132; +00000; +00003; -00029; -00011;
-00064; -00056; +17356; +00000; +00214; -00157; -00005;
-00192; -00544; +17088; +00000; +00261; -00273; -00002;
-00008; -01064; +20624; +00000; +00048; -00185; +00001;
-00036; -00980; +19684; +00000; -00022; -00131; +00007;
+00620; -00696; +17252; +00000; +00143; -00209; -00007;
+00556; -00140; +18300; +00000; +00242; -00218; -00022;
+00080; -00280; +19092; +00000; +00187; -00114; -00015;
-00052; -00388; +17932; +00000; +00167; -00068; +00001;
-00128; -00448; +17496; +00000; +00204; -00033; +00011;
-00748; -00032; +17440; +00000; +00208; -00011; +00017;
+01036; -00776; +19088; +00000; +00162; -00003; +00020;
+00396; -00852; +18556; +00000; +00110; +00000; +00012;
-00248; -00716; +18736; +00000; +00108; -00001; +00018;
+00380; -00756; +19096; +00000; +00137; +00040; +00017;
-00284; -00620; +17008; +00000; +00238; +00006; +00011;
-00176; +00368; +17164; +00000; +00260; -00064; +00022;
+00688; +00220; +19316; +00000; +00132; -00021; +00021;
-00800; -00224; +18580; +00000; +00109; +00030; +00029;
+01244; -00656; +16504; +00000; +00219; -00033; +00035;
+00436; -01220; +18032; +00000; +00170; -00053; +00022;
-00460; -00020; +19780; +00000; -00012; +00075; +00030;
+00640; -00824; +19916; +00000; +00025; +00111; +00023;
-00416; +00460; +16648; +00000; +00271; +00080; +00026;
+00744; -00016; +17336; +00000; +00340; +00083; +00033;
-00932; +00724; +18876; +00000; +00151; +00145; +00042;
+00976; -00524; +18700; +00000; +00022; +00171; +00058;
+00396; -01288; +17156; +00000; +00063; +00129; +00047;
-00180; -00316; +17000; +00000; +00100; +00142; +00058;
+00852; -00324; +18552; +00000; +00047; +00152; +00048;
+00272; -00136; +17516; +00000; +00003; +00138; +00048;
+00256; -00268; +16852; +00000; +00000; +00120; +00050;
+00132; +00220; +18056; +00000; +00006; +00158; +00051;
-01056; -00060; +18584; +00000; +00009; +00218; +00059;
+00480; -00456; +18048; +00000; +00004; +00227; +00058;
+00568; -01064; +16320; +00000; -00015; +00135; +00048;
-00140; +00096; +18884; +00000; -00117; +00117; +00051;
-00240; -00328; +22252; +00000; -00203; +00263; +00045;
-00060; -00036; +18192; +00000; -00005; +00240; +00036;
-00552; -00064; +13660; +00000; +00243; -00002; +00045;
+00120; -00884; +19572; +00000; +00033; +00029; +00054;
-01036; +00340; +23200; +00000; -00300; +00256; +00059;
-00332; +00064; +18784; +00000; -00107; +00132; +00062;
+00744; -00988; +14664; +00000; +00249; -00101; +00041;
-00468; -00668; +18860; +00000; +00108; -00045; +00039;
-00012; -00128; +21748; +00000; -00265; +00104; +00047;
+00308; +00016; +19564; +00000; -00221; +00068; +00044;
-00316; -00044; +16320; +00000; +00128; -00010; +00047;
-00128; +00244; +18476; +00000; +00238; +00036; +00045;
+00104; +00240; +19448; +00000; +00051; +00092; +00043;
+01584; -01448; +16832; +00000; -00084; +00013; +00040;
-00360; -00620; +18772; +00000; -00137; -00006; +00033;
+00404; +00128; +21480; +00000; -00147; +00170; +00034;
+00608; -00660; +17568; +00000; +00037; +00140; +00008;
-00504; +00136; +15168; +00000; +00190; -00032; +00023;
+00328; -00488; +20444; +00000; -00029; +00024; +00019;
-00872; +00164; +21608; +00000; -00226; +00173; +00027;
+00524; +00016; +17516; +00000; -00017; +00036; +00022;
+00040; -00848; +16364; +00000; +00201; -00097; +00013;
-00488; -00512; +18692; +00000; +00051; -00029; +00017;
-00532; -00320; +20644; +00000; -00185; +00023; +00023;
-00612; -00580; +20448; +00000; -00130; +00008; +00019;
-01140; -00160; +17012; +00000; +00167; -00098; +00019;
+00480; -00228; +17100; +00000; +00283; -00196; +00011;
-00604; +00244; +19288; +00000; +00101; -00178; +00014;
-00412; -00160; +20180; +00000; -00016; -00127; +00031;
+00028; -00716; +18360; +00000; +00104; -00145; +00029;
-00140; -00568; +17620; +00000; +00242; -00157; +00028;
-00592; -00644; +17888; +00000; +00189; -00148; +00024;
-00136; -00456; +18576; +00000; +00071; -00163; +00025;
+00084; -00036; +18288; +00000; +00077; -00197; +00027;
+00132; -00072; +18048; +00000; +00185; -00207; +00022;
+00140; +00452; +17520; +00000; +00250; -00205; +00016;
+00648; -00892; +17864; +00000; +00206; -00210; +00012;
+00132; -00524; +18840; +00000; +00081; -00164; +00012;
-00160; -00120; +18724; +00000; +00039; -00114; +00014;
+00216; -00304; +19004; +00000; +00141; -00091; +00010;
+00104; -00236; +18464; +00000; +00247; -00099; +00006;
+00408; +00188; +18216; +00000; +00251; -00140; +00006;
+00592; -00008; +17952; +00000; +00188; -00203; +00003;
+00300; -00912; +19328; +00000; +00138; -00206; +00001;
-00308; -00016; +18656; +00000; +00148; -00172; -00005;
+00440; +00008; +17452; +00000; +00229; -00199; -00007;
-01208; -00456; +17060; +00000; +00280; -00251; -00008;
-00012; -00560; +18112; +00000; +00206; -00222; +00007;
-00512; -00416; +19080; +00000; +00101; -00216; -00003;
-01036; +00548; +17124; +00000; +00168; -00286; +00016;
+00052; -00996; +17232; +00000; +00266; -00360; +00006;
-00848; -00300; +16560; +00000; +00243; -00362; +00014;
-00124; -00188; +17952; +00000; +00130; -00368; +00020;
-00772; -00068; +18544; +00000; +00078; -00344; +00023;
-00316; -00676; +17404; +00000; +00182; -00369; +00031;
+00080; -00720; +16388; +00000; +00243; -00427; +00031;
+00204; -00536; +18712; +00000; +00148; -00397; +00033;
+00444; -00012; +19608; +00000; +00115; -00359; +00027;
+00056; +00440; +18036; +00000; +00285; -00390; +00023;
+00564; -00268; +17344; +00000; +00437; -00409; +00027;
+01060; -00760; +18616; +00000; +00364; -00368; +00018;
-00108; +00028; +18156; +00000; +00234; -00340; +00024;
+00164; +00068; +17488; +00000; +00243; -00396; +00025;
+00896; +00000; +19056; +00000; +00307; -00384; +00015;
+00228; -00324; +19004; +00000; +00357; -00353; -00008;
-00012; +00620; +16144; +00000; +00411; -00440; -00007;
+01924; -00744; +16700; +00000; +00382; -00555; -00022;
-00984; -00032; +18956; +00000; +00243; -00505; -00027;
+00432; -00112; +20196; +00000; +00196; -00385; -00012;
+00300; +00152; +16512; +00000; +00335; -00475; -00035;
-00592; +01148; +15388; +00000; +00413; -00610; -00023;
+00720; -00488; +21700; +00000; +00194; -00513; -00037;
+00264; +00496; +19352; +00000; +00108; -00410; -00040;
+00936; -01256; +15856; +00000; +00274; -00555; -00050;
-00508; +00368; +17240; +00000; +00243; -00515; -00050;
+00008; +00236; +20536; +00000; +00012; -00287; -00045;
-00660; +01108; +18116; +00000; +00016; -00276; -00035;
+00660; +00728; +16284; +00000; +00167; -00411; -00033;
+00136; -00108; +17680; +00000; +00097; -00403; -00055;
+00820; -02068; +18184; +00000; -00124; -00321; -00066;
+00908; -01700; +18212; +00000; -00300; -00277; -00087;
-01784; +00264; +16896; +00000; -00290; -00243; -00100;
+00528; +02804; +16632; +00000; -00157; -00274; -00112;
+01028; -00424; +17988; +00000; +00001; -00341; -00151;
-00520; -00788; +15928; +00000; +00036; -00351; -00138;
+02208; -00704; +18348; +00000; -00165; -00360; -00169;
-00556; -00904; +18940; +00000; -00301; -00336; -00191;
-00416; -00240; +20092; +00000; -00255; -00251; -00181;
-00380; -00656; +20856; +00000; -00120; -00127; -00209;
-01392; +00932; +16580; +00000; +00117; -00206; -00212;
+00884; +00492; +17440; +00000; +00171; -00405; -00229;
-01308; -00952; +20608; +00000; -00067; -00364; -00223;
+00136; -01452; +19696; +00000; -00206; -00277; -00204;
-00576; -01132; +16152; +00000; -00076; -00356; -00214;
-01048; -00176; +17788; +00000; +00057; -00393; -00204;
-00692; +00736; +20320; +00000; -00034; -00278; -00203;
-00164; -00252; +19864; +00000; -00047; -00296; -00205;
-00860; +00044; +18496; +00000; +00089; -00406; -00194;
+01548; +00064; +21012; +00000; +00166; -00427; -00197;
+01792; -01036; +20436; +00000; +00172; -00423; -00210;
-01048; -01876; +19884; +00000; +00144; -00430; -00202;
-01940; +01776; +22572; +00000; +00059; -00295; -00179;
+01500; +01344; +22364; +00000; +00180; -00300; -00193;
+02132; -00388; +18568; +00000; +00476; -00487; -00214;
-01324; -00672; +17112; +00000; +00471; -00506; -00207;
-01120; -00992; +15588; +00000; +00187; -00439; -00173;
-00112; +00132; +16408; +00000; -00060; -00449; -00190;
-00912; +01872; +20516; +00000; -00033; -00342; -00164;
+01252; -00644; +16220; +00000; +00217; -00289; -00193;
-00456; +02196; +09552; +00000; +00436; -00530; -00182;
+02540; -01496; +14496; +00000; +00128; -00628; -00176;
-02968; -02000; +22228; +00000; -00398; -00280; -00147;
-01932; +00604; +21932; +00000; -00462; -00065; -00080;
+03796; -00148; +19212; +00000; -00058; -00236; -00143;
-01552; +01668; +11816; +00000; +00423; -00568; -00145;
+00812; -00704; +20284; +00000; +00187; -00517; -00096;
+01212; -01188; +26112; +00000; -00405; -00128; -00086;
+00232; +00852; +17916; +00000; -00250; -00176; -00061;
+01412; -00228; +13972; +00000; +00262; -00531; -00073;
+00636; -00736; +17748; +00000; +00224; -00422; -00073;
+01168; -00564; +20088; +00000; -00161; -00218; -00064;
+01432; +00048; +18176; +00000; -00215; -00328; -00064;
+01340; -00220; +15940; +00000; +00024; -00458; -00071;
+00716; -00192; +17968; +00000; +00116; -00430; -00077;
+00384; +00344; +20740; +00000; -00027; -00299; -00070;
+00532; -00344; +18804; +00000; -00032; -00310; -00061;
+00940; -01004; +16764; +00000; +00098; -00455; -00063;
+01156; -00624; +19640; +00000; +00028; -00448; -00069;
+00252; -00132; +20412; +00000; -00115; -00343; -00073;
+00828; -00132; +17616; +00000; +00029; -00437; -00065;
+00748; -00484; +17748; +00000; +00166; -00516; -00064;
-00064; +00092; +20652; +00000; +00080; -00400; -00053;
+00996; +00880; +20116; +00000; +00038; -00361; -00045;
+00912; -00292; +17676; +00000; +00195; -00454; -00035;
+00608; -01640; +18888; +00000; +00225; -00420; -00020;
+00672; -00316; +21012; +00000; +00061; -00300; -00013;
+00976; -00056; +19596; +00000; +00073; -00337; -00010;
+01520; -00024; +17560; +00000; +00266; -00470; -00007;
+01112; -00564; +16880; +00000; +00333; -00483; -00005;
+01996; +00048; +17568; +00000; +00263; -00452; +00010;
+01964; +00076; +19032; +00000; +00191; -00431; +00017;
+00576; -00128; +16756; +00000; +00246; -00425; +00029;
+01496; -00392; +16888; +00000; +00301; -00460; +00030;
+01396; -00592; +19812; +00000; +00188; -00389; +00027;
+01012; -00504; +20144; +00000; +00090; -00312; +00029;
+01616; -00148; +17620; +00000; +00198; -00367; +00030;
+02164; +00208; +17236; +00000; +00332; -00426; +00030;
+01624; +00424; +18644; +00000; +00293; -00335; +00048;
+01660; +00388; +17892; +00000; +00244; -00245; +00075;
+01452; -00636; +16780; +00000; +00291; -00258; +00090;
+00044; -01168; +16960; +00000; +00303; -00222; +00112;
+01948; -01520; +17992; +00000; +00195; -00151; +00123;
+02016; -00368; +16932; +00000; +00114; -00182; +00113;
+01548; -00372; +17748; +00000; +00211; -00247; +00115;
+00408; +00828; +17412; +00000; +00383; -00176; +00123;
+01876; +00004; +16140; +00000; +00545; -00113; +00134;
+02784; -00604; +14676; +00000; +00578; -00164; +00140;
+01696; -00016; +16776; +00000; +00407; -00126; +00156;
-00628; -00376; +20596; +00000; +00239; +00037; +00175;
+00896; +00812; +18832; +00000; +00327; +00081; +00175;
+03804; -00732; +17488; +00000; +00596; -00094; +00133;
-02404; +01856; +17756; +00000; +00695; -00164; +00154;
+01716; +00372; +21340; +00000; +00553; -00136; +00175;
+01676; -00776; +17832; +00000; +00462; -00267; +00149;
-00112; +00360; +15548; +00000; +00520; -00484; +00188;
+00896; -00628; +18484; +00000; +00424; -00544; +00184;
+01240; +00168; +19804; +00000; +00275; -00453; +00160;
+01456; +01188; +15868; +00000; +00347; -00567; +00150;
+01076; +00260; +17592; +00000; +00454; -00674; +00136;
+00360; +01172; +18120; +00000; +00407; -00524; +00151;
+00908; +00748; +17032; +00000; +00347; -00530; +00150;
+01172; -01356; +17960; +00000; +00252; -00594; +00164;
+01432; -00600; +18700; +00000; +00075; -00534; +00154;
+01940; +00732; +17260; +00000; +00023; -00558; +00149;
+01948; +01316; +18356; +00000; +00044; -00618; +00125;
+01124; +02828; +20464; +00000; +00012; -00471; +00134;
+01992; +00300; +16232; +00000; +00036; -00432; +00110;
+01084; +00180; +10656; +00000; +00093; -00694; +00117;
+03928; -01756; +14848; +00000; -00250; -00750; +00115;
+03100; +00480; +20232; +00000; -00794; -00409; +00101;
+03480; +01036; +17236; +00000; -00866; -00196; +00095;
+02080; +00592; +13540; +00000; -00483; -00336; +00070;
+02580; +02052; +16536; +00000; -00392; -00138; +00068;
+03400; -00488; +19508; +00000; -00721; +00247; +00048;
+01056; +00624; +18956; +00000; -00953; +00343; +00081;
+02848; -00124; +20432; +00000; -01045; +00402; +00104;
+04756; -00356; +21656; +00000; -01051; +00580; +00065;
+00796; +02320; +20676; +00000; -00907; +00617; +00043;
-00556; +01608; +19608; +00000; -00808; +00604; -00031;
+04800; -03040; +22708; +00000; -00859; +00647; -00082;
-02552; -00448; +18972; +00000; -01002; +00695; -00012;
+02420; -01536; +20808; +00000; -01110; +00607; +00056;
+00968; +00568; +16084; +00000; -01088; +00471; +00072;
-00456; -01120; +23408; +00000; -00962; +00494; +00123;
-02724; +01364; +22064; +00000; -00906; +00685; +00182;
+07212; -01872; +20388; +00000; -00845; +00583; +00157;
-01424; -01744; +13916; +00000; -00819; +00148; +00165;
-03032; -01512; +24328; +00000; -01141; +00287; +00261;
+03824; -02244; +32767; +00000; -01304; +00849; +00230;
+00988; +01912; +16940; +00000; -00545; +00557; +00217;
-00620; +01256; +10556; +00000; +00112; -00096; +00249;
+01536; -00308; +30352; +00000; -00421; +00288; +00232;
+00100; -02356; +28656; +00000; -00847; +00782; +00258;
+01272; -04040; +15112; +00000; -00318; +00115; +00267;
+01268; -00692; +19204; +00000; -00069; -00230; +00278;
+01332; -00532; +23144; +00000; -00368; +00174; +00239;
-00744; +02104; +21080; +00000; -00228; +00052; +00228;
+03496; +02428; +17240; +00000; +00285; -00280; +00227;
+02700; -01456; +17108; +00000; +00423; -00324; +00148;
+01144; -00352; +15208; +00000; +00150; -00355; +00180;
+01436; -03616; +21236; +00000; -00270; -00448; +00129;
+03020; -00400; +22188; +00000; -00376; -00159; +00140;
+04908; -00288; +19084; +00000; +00025; -00166; +00056;
-00688; +02316; +13300; +00000; +00568; -00387; +00066;
+01172; -00488; +17832; +00000; +00488; -00247; +00048;
+04484; -02116; +23584; +00000; +00054; +00151; +00054;
+01400; -02004; +17072; +00000; +00020; +00164; +00059;
+02528; +00640; +15376; +00000; +00282; +00044; +00079;
+03316; -01452; +21012; +00000; +00374; +00304; +00029;
+01468; +00344; +19292; +00000; +00466; +00676; +00041;
+03064; -02668; +14136; +00000; +00696; +00571; +00030;
+01496; -00220; +14024; +00000; +00723; +00481; +00025;
+02848; -00584; +17532; +00000; +00552; +00685; +00043;
+03312; +00076; +16216; +00000; +00601; +00828; +00025;
+00060; +00288; +12640; +00000; +00948; +00761; +00045;
+02588; -01548; +12988; +00000; +01119; +00790; +00048;
+00528; +00804; +18608; +00000; +00882; +00958; +00009;
+01976; +00736; +19624; +00000; +00681; +01205; +00033;
+01216; -02456; +16800; +00000; +00825; +01111; -00037;
-01612; -00736; +14828; +00000; +00963; +01095; -00054;
+01804; -00540; +20056; +00000; +00886; +01212; -00054;
-00600; +00996; +17932; +00000; +00927; +01224; -00003;
+00520; +00424; +14416; +00000; +01091; +01074; +00034;
-00548; +00212; +16416; +00000; +01129; +01015; +00069;
+01048; +00912; +19984; +00000; +01018; +01098; +00109;
+02940; -00492; +21008; +00000; +00966; +01074; +00102;
-03760; +00804; +14072; +00000; +01117; +00876; +00134;
+03732; -00516; +19584; +00000; +01120; +00784; +00149;
+02480; -01376; +20320; +00000; +00979; +00869; +00086;
-02608; +03440; +13508; +00000; +01086; +00800; +00157;
+02424; -00416; +14312; +00000; +01203; +00610; +00133;
+03148; +00628; +12732; +00000; +01093; +00688; +00113;
+00480; -01216; +09652; +00000; +00886; +00662; +00121;
-01160; +02432; +08672; +00000; +00612; +00567; +00152;
+03420; +00584; +16952; +00000; +00302; +00713; +00104;
-00636; +01508; +13864; +00000; +00266; +00887; +00062;
+00980; -00160; +10616; +00000; +00463; +00739; +00093;
+03180; -00764; +12768; +00000; +00242; +00658; +00039;
+01768; +01768; +18108; +00000; -00264; +00820; +00051;
+00588; +01136; +21364; +00000; -00611; +00981; +00014;
+01152; +00548; +18328; +00000; -00344; +00967; +00003;
+00184; -00260; +12532; +00000; +00061; +00737; -00034;
-00572; +01984; +15548; +00000; -00104; +00597; +00002;
+02016; -00696; +22928; +00000; -00744; +00768; -00024;
+00068; -00224; +21144; +00000; -00913; +00931; -00008;
+00488; -01340; +15748; +00000; -00500; +00709; +00013;
-00532; +00956; +15584; +00000; -00286; +00578; +00000;
-00236; +01136; +20332; +00000; -00516; +00746; +00019;
+00392; -00588; +20012; +00000; -00710; +00809; +00027;
-00340; -00700; +18500; +00000; -00696; +00715; +00062;
-00220; -01240; +18888; +00000; -00705; +00649; +00063;
-01416; -00560; +20120; +00000; -00731; +00657; +00073;
-00524; +00496; +21392; +00000; -00679; +00645; +00113;
+01708; +00156; +22740; +00000; -00640; +00623; +00168;
-02136; +00588; +19944; +00000; -00556; +00558; +00200;
+00356; -01504; +20836; +00000; -00480; +00395; +00192;
+00096; -01976; +23692; +00000; -00593; +00376; +00178;
+00424; -00412; +24200; +00000; -00700; +00409; +00190;
-00888; +00560; +20228; +00000; -00512; +00225; +00170;
+01652; -00816; +20108; +00000; -00254; +00032; +00147;
-00512; -01508; +23380; +00000; -00352; +00103; +00092;
-00684; +01160; +20640; +00000; -00411; +00151; +00108;
-00900; -00800; +18580; +00000; -00250; -00074; +00078;
-00040; -01368; +19552; +00000; -00176; -00117; +00073;
+00168; -00948; +25060; +00000; -00306; +00069; +00048;
-00832; -00404; +19756; +00000; -00210; +00035; +00042;
+01564; -00492; +17940; +00000; +00017; -00217; +00016;
+01384; -01144; +21836; +00000; -00031; -00174; -00004;
+00024; +00236; +22228; +00000; -00104; +00039; -00006;
-00208; -00396; +17616; +00000; +00162; -00072; -00011;
+01424; -00368; +16320; +00000; +00383; -00214; -00028;
+01880; +00168; +19844; +00000; +00221; -00113; -00047;
+00416; +00032; +19688; +00000; +00027; +00053; -00064;
+01736; -00068; +17364; +00000; +00199; -00005; -00065;
+00980; -00960; +16520; +00000; +00351; +00008; -00095;
+00348; +00804; +18092; +00000; +00291; +00135; -00082;
+01684; -00900; +17856; +00000; +00185; +00127; -00105;
+00216; +00216; +16812; +00000; +00208; +00064; -00105;
+01012; -00460; +19416; +00000; +00243; +00065; -00119;
+00064; +00304; +17820; +00000; +00256; +00144; -00123;
+00012; -00184; +16704; +00000; +00277; +00094; -00116;
-00792; -00340; +18536; +00000; +00188; +00062; -00116;
-01104; -00620; +19376; +00000; +00095; +00115; -00102;
