   ax     ay       az      t      gx        gy    gz

start
+00940; +00520; +19380; +00000; +00385; -00162; +00330;
+02072; +00848; +18316; +00000; +00308; +00032; +00344;
+01756; -00448; +15204; +00000; +00484; -00009; +00334;
+00992; -00204; +12024; +00000; +00495; -00127; +00335;
+02472; -00548; +15348; +00000; +00200; -00224; +00333;
+01788; +01972; +19780; +00000; -00104; -00160; +00320;
+03208; +03324; +21296; +00000; +00057; +00109; +00317;
-00744; +01292; +16472; +00000; +00512; +00156; +00298;
+02884; +00776; +12628; +00000; +00775; +00049; +00325;
+03596; -02540; +20268; +00000; +00277; -00143; +00323;
-00908; +00264; +20140; +00000; -00362; -00104; +00385;
+00300; -01096; +15704; +00000; -00450; -00049; +00354;
+06444; +03008; +19928; +00000; -00102; -00226; +00307;
+01636; +01960; +15064; +00000; +00292; -00282; +00265;
-00716; +01792; +14664; +00000; +00358; -00268; +00309;
+04008; -01132; +19764; +00000; +00006; -00145; +00317;
-00720; +00668; +18964; +00000; -00233; +00039; +00352;
+01752; +00420; +19784; +00000; -00289; -00016; +00378;
+03116; +00388; +20392; +00000; -00080; -00153; +00331;
+00552; +00984; +15784; +00000; +00155; -00288; +00337;
+01488; +01224; +17692; +00000; +00130; -00427; +00335;
+02236; +00008; +19196; +00000; -00046; -00592; +00313;
+01040; +01156; +20928; +00000; +00006; -00692; +00295;
+02884; +01808; +19800; +00000; +00279; -00741; +00288;
+01284; -00336; +17244; +00000; +00483; -00792; +00255;
+02536; +01620; +17552; +00000; +00345; -00855; +00282;
+02868; +00532; +22052; +00000; +00039; -00858; +00273;
+01224; +02564; +19636; +00000; +00072; -00728; +00302;
+05896; -00836; +18456; +00000; +00393; -00515; +00282;
+02336; -00336; +17120; +00000; +00566; -00344; +00278;
+01196; +02420; +18488; +00000; +00312; -00181; +00353;
+05180; -01328; +21972; +00000; +00042; -00107; +00332;
+02160; +01644; +19528; +00000; +00168; +00009; +00324;
+03588; +02260; +18656; +00000; +00453; +00184; +00341;
+04868; +00508; +17720; +00000; +00446; +00327; +00315;
+02280; +01036; +18224; +00000; +00269; +00297; +00336;
+03308; -00564; +18244; +00000; +00131; +00199; +00359;
+03572; +00112; +18672; +00000; +00135; +00316; +00351;
+01180; +01340; +15620; +00000; +00271; +00453; +00365;
+00828; +01036; +13928; +00000; +00413; +00414; +00383;
+02208; +00444; +15708; +00000; +00369; +00296; +00381;
+00904; +01616; +14688; +00000; +00181; +00285; +00405;
-01428; -01800; +13208; +00000; +00001; +00297; +00412;
-02108; +00660; +13712; +00000; -00060; +00246; +00441;
+00508; +00472; +18188; +00000; -00139; +00222; +00441;
+02672; +04232; +20552; +00000; -00281; +00356; +00448;
-02000; -00556; +13740; +00000; -00291; +00392; +00437;
+02472; +00900; +21800; +00000; -00365; +00085; +00411;
+05700; +01252; +22564; +00000; -00487; +00030; +00366;
+02292; +01756; +24072; +00000; -00486; -00058; +00311;
+03648; +00988; +17772; +00000; -00353; -00054; +00271;
+05920; -01400; +20392; +00000; -00367; -00115; +00116;
-00520; -00812; +17972; +00000; -00493; -00248; -00081;
+02120; -00680; +19312; +00000; -00439; -00355; -00137;
+05780; +00372; +21532; +00000; -00180; -00375; -00070;
+02900; +02940; +18368; +00000; +00220; -00220; +00041;
+02072; +00212; +16148; +00000; +00318; -00116; +00142;
+04484; -00212; +20592; +00000; +00127; -00214; +00190;
+03716; -00012; +21996; +00000; -00025; -00259; +00222;
+02128; +02388; +21372; +00000; +00218; -00097; +00260;
+03808; +00280; +17220; +00000; +00555; +00056; +00257;
+01584; +01712; +17036; +00000; +00571; +00069; +00297;
+02000; -00336; +19972; +00000; +00273; -00053; +00372;
+04152; -00228; +20624; +00000; +00082; +00021; +00387;
+01368; +01048; +17672; +00000; +00267; +00209; +00436;
+00916; +00648; +17600; +00000; +00492; +00413; +00528;
+02720; +00948; +19428; +00000; +00427; +00643; +00644;
+02960; +03460; +19008; +00000; +00229; +00638; +00771;
+03072; -00556; +18140; +00000; +00173; +00444; +00752;
+05516; +02120; +20380; +00000; +00146; +00452; +00637;
+04200; -00680; +17856; +00000; +00201; +00757; +00426;
+02844; +01200; +16960; +00000; +00272; +00834; +00217;
-00740; +00404; +12628; +00000; +00263; +00779; +00115;
+03164; -00692; +19444; +00000; +00004; +00749; +00059;
+01512; +01340; +17536; +00000; -00199; +00865; +00055;
+00832; +02700; +15812; +00000; -00083; +00946; -00001;
+03040; +01080; +17996; +00000; +00140; +00841; -00159;
-01612; +01572; +14648; +00000; +00303; +00766; -00250;
+01016; -00392; +13684; +00000; +00233; +00790; -00272;
-00352; +00080; +16424; +00000; +00001; +00605; -00240;
+01660; +00028; +16940; +00000; -00313; +00420; -00110;
+02280; +01088; +18636; +00000; -00596; +00261; -00003;
+02444; +00760; +18904; +00000; -00685; +00124; +00012;
+00676; +00552; +21940; +00000; -00544; -00024; -00082;
+00348; +02320; +19476; +00000; -00255; -00100; -00092;
+02744; +01308; +18848; +00000; +00075; -00240; -00004;
+01720; -00812; +15772; +00000; +00080; -00406; +00116;
+03828; +00660; +20348; +00000; -00285; -00346; +00234;
+01232; -01888; +20192; +00000; -00556; -00251; +00265;
+04612; +01392; +20232; +00000; -00384; -00210; +00313;
+04136; +00024; +22292; +00000; +00052; -00179; +00275;
-00828; +04768; +13004; +00000; +00455; -00074; +00339;
+06760; -01280; +23412; +00000; +00288; -00037; +00348;
+02980; -00176; +22592; +00000; -00132; +00048; +00374;
+01424; +00512; +21380; +00000; -00179; +00189; +00434;
+00764; -00812; +15580; +00000; +00185; +00121; +00420;
-01112; -02256; +12516; +00000; +00500; +00001; +00461;
-00396; -01628; +17312; +00000; +00191; -00035; +00639;
+00740; +00640; +20412; +00000; -00189; +00167; +00994;
-01056; +01872; +19900; +00000; -00087; +00328; +01340;
+03264; +01348; +18908; +00000; +00352; +00281; +01617;
+03416; +01576; +14304; +00000; +00538; +00148; +01768;
+03892; +02844; +20004; +00000; +00193; -00023; +01802;
+08052; +01464; +22740; +00000; -00194; -00152; +01609;
+02412; +00268; +19020; +00000; -00114; -00075; +01119;
-01704; +01776; +15244; +00000; +00223; -00161; +00608;
+04052; -00460; +20004; +00000; +00334; -00241; +00190;
-00500; +02504; +17828; +00000; +00256; -00226; -00048;
+01880; +00256; +18344; +00000; +00217; -00257; -00173;
+02564; +00892; +18480; +00000; +00243; -00283; -00222;
+03668; +01584; +17976; +00000; +00289; -00191; -00169;
+04132; +02072; +18028; +00000; +00275; -00185; -00206;
+03360; +00356; +17524; +00000; +00274; -00215; -00419;
+03292; +00284; +19716; +00000; +00260; -00185; -00697;
+00896; +00788; +19164; +00000; +00306; -00036; -00966;
-00460; +01680; +19412; +00000; +00463; +00029; -01123;
+01540; +01004; +17936; +00000; +00628; -00030; -01018;
+02216; +01908; +15936; +00000; +00643; -00126; -00648;
+02292; +00364; +17056; +00000; +00466; -00144; -00320;
+02348; -00552; +17356; +00000; +00323; -00145; -00087;
+00672; +01260; +16376; +00000; +00404; -00163; +00111;
+02040; +01520; +16200; +00000; +00532; -00186; +00233;
+00424; -00660; +16688; +00000; +00509; -00186; +00349;
+01088; +02248; +19544; +00000; +00325; -00178; +00582;
+01248; +02052; +18308; +00000; +00224; -00148; +00799;
+02668; +00156; +17548; +00000; +00290; -00216; +00881;
+03668; +02656; +16524; +00000; +00306; -00290; +00930;
+02824; +00484; +15676; +00000; +00223; -00375; +00850;
+03412; +00524; +17024; +00000; +00133; -00431; +00649;
+02880; +02244; +17060; +00000; +00124; -00345; +00453;
+04696; +01960; +19684; +00000; +00155; -00187; +00230;
+01632; +03184; +16916; +00000; +00205; -00078; -00009;
+01136; +01404; +15956; +00000; +00169; -00143; -00244;
+02316; -01844; +20148; +00000; -00088; -00250; -00420;
+00940; +02824; +19068; +00000; -00249; -00208; -00388;
+03680; +00988; +17924; +00000; -00168; -00151; -00279;
+02348; +03216; +15712; +00000; +00041; -00203; -00143;
+02900; +00688; +17772; +00000; +00119; -00202; +00031;
+03144; +01636; +19820; +00000; -00008; -00062; +00177;
+02032; +02244; +17852; +00000; -00040; +00074; +00289;
+04164; +00980; +18024; +00000; -00001; -00005; +00369;
+02896; +00744; +19520; +00000; +00005; -00069; +00434;
+02052; +00604; +17420; +00000; +00002; +00000; +00489;
+03596; +02564; +19360; +00000; +00000; +00099; +00506;
+04256; +01268; +18704; +00000; +00003; +00134; +00514;
+00784; +02488; +18464; +00000; +00057; +00054; +00541;
+02988; +01152; +17932; +00000; +00099; +00040; +00556;
+04880; -00164; +19900; +00000; +00027; +00100; +00517;
-00300; +03376; +19336; +00000; -00027; +00103; +00542;
+03372; +01544; +18164; +00000; +00092; +00084; +00533;
+04224; +00932; +19036; +00000; +00227; +00034; +00477;
+01324; +02736; +17624; +00000; +00202; +00122; +00501;
+03520; +00288; +20292; +00000; +00049; +00216; +00494;
+01708; +02552; +18896; +00000; +00053; +00229; +00487;
+02196; +01752; +19524; +00000; +00193; +00188; +00482;
+03152; +00884; +18708; +00000; +00228; +00254; +00439;
+02188; +01988; +18792; +00000; +00211; +00320; +00408;
+01520; +01820; +17984; +00000; +00228; +00221; +00379;
+03200; +00288; +19768; +00000; +00245; +00159; +00341;
+01096; +02080; +18160; +00000; +00287; +00227; +00351;
+02232; +01684; +18032; +00000; +00336; +00295; +00377;
+02220; +00940; +17592; +00000; +00387; +00234; +00397;
+01396; +01932; +16592; +00000; +00362; +00148; +00441;
+02664; +00484; +17236; +00000; +00297; +00062; +00449;
+01808; +00844; +17128; +00000; +00265; -00010; +00453;
+01072; +02640; +16672; +00000; +00338; -00048; +00466;
+01936; +03204; +17584; +00000; +00432; -00128; +00455;
+03196; +01752; +16284; +00000; +00487; -00208; +00435;
+01812; +01912; +17060; +00000; +00436; -00320; +00427;
+01612; +02292; +17308; +00000; +00295; -00365; +00444;
+02920; +00820; +19132; +00000; +00207; -00409; +00402;
+01228; +01996; +17188; +00000; +00258; -00511; +00390;
+03060; +02736; +18296; +00000; +00350; -00577; +00386;
+02676; +02916; +20196; +00000; +00362; -00522; +00336;
+03256; +05048; +18248; +00000; +00476; -00453; +00318;
+03380; +02024; +18640; +00000; +00522; -00471; +00281;
+02816; +01828; +17516; +00000; +00384; -00316; +00333;
+03172; +00600; +18036; +00000; +00132; -00097; +00363;
+01300; +01832; +18412; +00000; +00057; -00020; +00403;
+02088; +03048; +17812; +00000; +00202; +00034; +00434;
+03876; +02292; +18996; +00000; +00303; +00098; +00437;
+03096; +04480; +17460; +00000; +00346; +00143; +00463;
+02696; +03824; +18996; +00000; +00364; +00089; +00501;
+02816; +03148; +18188; +00000; +00324; +00203; +00520;
+01952; +02164; +17952; +00000; +00179; +00336; +00530;
+01192; +01264; +13880; +00000; +00094; +00348; +00555;
+00320; +00496; +13796; +00000; +00032; +00118; +00594;
+00536; +01344; +16072; +00000; -00054; -00006; +00645;
-00036; +01888; +17520; +00000; -00107; +00215; +00678;
+01768; +03492; +17724; +00000; -00025; +00497; +00726;
+02664; +05164; +16956; +00000; +00099; +00590; +00715;
+05556; +04648; +18332; +00000; +00122; +00496; +00585;
+00160; +03884; +16412; +00000; +00008; +00310; +00310;
+03628; -00460; +16688; +00000; -00233; +00125; +00054;
+01244; +02124; +22700; +00000; -00557; -00105; -00035;
+00668; +02940; +22328; +00000; -00696; -00081; +00054;
+06928; +06036; +21544; +00000; -00417; -00143; +00148;
+07220; +03180; +18716; +00000; -00077; -00364; +00195;
+00060; +04596; +20316; +00000; -00048; -00412; +00282;
+04680; +00928; +21900; +00000; -00269; -00195; +00332;
+04820; -00932; +21256; +00000; -00328; -00028; +00314;
-01616; +01756; +14212; +00000; -00259; -00142; +00374;
+04208; +04608; +18880; +00000; -00184; -00486; +00414;
+07124; +02256; +22212; +00000; +00023; -00572; +00334;
-01120; +07104; +17712; +00000; +00578; -00283; +00342;
+04380; +01988; +16008; +00000; +00739; +00072; +00451;
+01320; +00392; +17568; +00000; +00269; +00205; +00534;
+02476; +02648; +22828; +00000; -00273; +00020; +00685;
+02604; -00892; +21020; +00000; -00299; -00044; +00642;
+01192; +03168; +20828; +00000; +00190; -00070; +00613;
-00576; +04204; +16200; +00000; +00662; +00134; +00693;
+01700; +01696; +16932; +00000; +00596; +00339; +00817;
+03452; +03144; +19372; +00000; +00162; +00214; +01015;
+06748; +06148; +21808; +00000; -00137; +00046; +01122;
+06928; +03544; +20216; +00000; +00003; +00144; +00863;
+05584; +01832; +16636; +00000; +00353; +00445; +00326;
+03180; +03612; +13884; +00000; +00455; +00687; -00201;
+02728; +01648; +15604; +00000; +00237; +00675; -00576;
+02308; +05164; +20560; +00000; -00015; +00529; -00795;
+03392; +03880; +18844; +00000; +00027; +00704; -00979;
+02552; +03840; +19260; +00000; +00288; +01041; -01186;
+00828; +04212; +18400; +00000; +00473; +01287; -01279;
+01152; +02448; +15800; +00000; +00434; +01283; -01152;
+00896; +02436; +15788; +00000; +00275; +00913; -00826;
+01320; +01776; +15720; +00000; +00038; +00646; -00448;
+02212; +01832; +17524; +00000; -00172; +00711; -00127;
+02516; +04072; +18048; +00000; -00230; +00858; +00100;
-00412; +04332; +17256; +00000; -00071; +00894; +00219;
+00328; +04620; +17684; +00000; +00142; +00865; +00312;
+02452; +05052; +19220; +00000; +00244; +00800; +00406;
-01456; +02912; +14132; +00000; +00171; +00696; +00464;
+02872; +00428; +18408; +00000; -00184; +00435; +00457;
+00240; +01604; +20968; +00000; -00587; -00001; +00432;
+01196; +04416; +18556; +00000; -00680; -00205; +00423;
+03596; +03420; +19824; +00000; -00384; -00311; +00278;
+05168; +04452; +17652; +00000; +00146; -00444; +00024;
+02192; +04672; +14932; +00000; +00453; -00529; -00324;
-00212; +03004; +20892; +00000; +00248; -00606; -00799;
+00948; +01892; +20056; +00000; +00084; -00476; -01151;
-01480; +03200; +17084; +00000; +00206; -00456; -01223;
+03468; +00076; +17416; +00000; +00316; -00564; -01067;
+02412; +04180; +16804; +00000; +00202; -00604; -00697;
-00844; +03032; +14204; +00000; +00233; -00515; -00407;
+05252; +04032; +20252; +00000; +00459; -00411; -00200;
+02096; +01852; +15820; +00000; +00715; -00116; -00040;
+00572; +07004; +16768; +00000; +00641; +00057; +00293;
+00924; -00168; +18416; +00000; +00305; +00057; +00458;
+01944; +03980; +23448; +00000; +00051; -00077; +00683;
+04704; +03064; +21956; +00000; +00134; -00023; +00871;
+04396; +06168; +19428; +00000; +00519; +00119; +00893;
+02704; +01924; +16176; +00000; +00703; +00122; +00739;
-01280; +03288; +18548; +00000; +00361; -00093; +00666;
+01392; -00204; +19644; +00000; +00035; -00296; +00574;
+04364; +05124; +21556; +00000; +00250; -00341; +00472;
+03088; +01972; +15828; +00000; +00810; -00178; +00363;
-03204; +05980; +14492; +00000; +00965; -00068; +00361;
+00940; +02464; +18248; +00000; +00536; -00068; +00354;
+00584; +02184; +18512; +00000; +00259; -00173; +00303;
+01144; +03680; +16572; +00000; +00489; -00168; +00325;
+01788; +03152; +13072; +00000; +00914; -00081; +00303;
+01136; +05440; +14408; +00000; +00915; +00085; +00320;
+02472; +01200; +17060; +00000; +00480; +00232; +00321;
+01624; +03260; +18668; +00000; +00158; +00142; +00365;
-00144; +02592; +13184; +00000; +00331; +00077; +00405;
+01952; +04200; +15788; +00000; +00487; +00017; +00368;
+04388; +03996; +21288; +00000; +00425; +00090; +00278;
-01072; +05828; +18368; +00000; +00376; +00066; +00317;
+01272; +05272; +15268; +00000; +00489; +00011; +00365;
+04816; -01260; +21760; +00000; +00315; -00223; +00252;
-02164; +06792; +16748; +00000; -00051; -00165; +00335;
+06644; +01588; +18652; +00000; -00156; -00185; +00308;
+02296; +04764; +19132; +00000; +00119; -00411; +00233;
+01268; +03404; +14808; +00000; +00310; -00240; +00278;
+02580; +04412; +20628; +00000; -00049; -00123; +00274;
+00656; +03556; +17724; +00000; -00206; -00169; +00322;
+03040; +02908; +17508; +00000; -00041; -00305; +00353;
+01800; +01516; +16392; +00000; +00044; -00156; +00331;
-02048; +05492; +16088; +00000; -00083; +00090; +00366;
+03272; +03032; +16240; +00000; -00134; +00007; +00359;
+03320; +03048; +17064; +00000; -00114; -00170; +00352;
+00444; +02956; +15856; +00000; -00202; +00038; +00393;
+01524; +03008; +17384; +00000; -00353; +00319; +00413;
+00460; +04088; +17816; +00000; -00444; +00389; +00408;
+05280; +05500; +23144; +00000; -00387; +00331; +00403;
+02016; +03488; +21168; +00000; -00246; +00282; +00353;
+00184; +05884; +17968; +00000; +00008; +00315; +00404;
+04924; -00272; +22268; +00000; -00072; +00326; +00370;
+00024; +00504; +19784; +00000; -00356; +00361; +00361;
-00680; +05376; +17480; +00000; -00559; +00233; +00407;
+02752; +02120; +16592; +00000; -00471; +00071; +00351;
+04772; +05452; +22928; +00000; -00250; +00080; +00314;
+00976; +04064; +14048; +00000; +00049; +00318; +00300;
+00740; +06092; +15436; +00000; +00108; +00263; +00346;
+04564; +00724; +18528; +00000; -00290; +00245; +00336;
-02084; +00448; +18712; +00000; -00685; +00396; +00335;
+00748; +05460; +21060; +00000; -00701; +00612; +00385;
+06524; +01708; +23628; +00000; -00468; +00746; +00249;
-03040; +07412; +20560; +00000; -00022; +00562; +00252;
+02584; +00108; +18184; +00000; +00191; +00422; +00298;
+03136; +00400; +20652; +00000; -00074; +00263; +00244;
-01608; +02680; +16148; +00000; -00400; +00154; +00324;
+00340; +01780; +19468; +00000; -00533; +00073; +00328;
+01628; +05244; +21796; +00000; -00340; +00150; +00270;
+02348; +05560; +19628; +00000; +00324; +00201; +00227;
-00396; +05488; +13308; +00000; +00889; -00023; +00223;
+00512; +03644; +16556; +00000; +00578; +00003; +00254;
+06088; -01968; +23592; +00000; -00248; +00089; +00234;
-02004; +01444; +18072; +00000; -00510; +00249; +00237;
-00480; +01536; +15388; +00000; -00173; +00297; +00294;
+01956; +04268; +18416; +00000; +00096; +00339; +00219;
+03844; +05132; +20996; +00000; +00192; +00469; +00209;
+02948; +07736; +21968; +00000; +00117; +00483; +00204;
-02480; +04784; +14240; +00000; +00277; +00462; +00247;
+03560; +02360; +21176; +00000; +00397; +00339; +00252;
+06236; -03708; +21728; +00000; +00238; +00451; +00197;
-05592; +04304; +16676; +00000; +00023; +00560; +00263;
+02992; +01504; +14660; +00000; +00018; +00268; +00265;
+02944; +03924; +23068; +00000; +00156; -00059; +00077;
-01332; +04504; +15200; +00000; +00637; +00093; +00053;
-01000; +05700; +18040; +00000; +00739; +00384; +00079;
+01200; +03672; +12132; +00000; +00486; +00519; +00077;
-01104; +04028; +18424; +00000; +00125; +00089; +00098;
+00828; +03004; +16632; +00000; +00042; -00039; +00130;
+02524; +01432; +18848; +00000; +00195; +00230; +00062;
-03336; +03448; +12732; +00000; +00306; +00538; +00078;
-02920; +03264; +16136; +00000; +00059; +00480; +00057;
+01612; +04220; +24172; +00000; -00210; +00081; +00018;
+02460; +01604; +22112; +00000; -00116; +00009; -00049;
-01036; +04264; +16968; +00000; +00321; -00122; -00051;
+03696; +05152; +12208; +00000; +00440; -00361; -00092;
+03180; +03244; +22408; +00000; +00057; -00697; -00286;
-00924; -00876; +21808; +00000; -00179; -00605; -00490;
-03160; +07500; +19404; +00000; +00111; -00320; -00474;
-00620; +00720; +13816; +00000; +00560; -00250; -00436;
+04400; +04292; +22620; +00000; +00483; -00240; -00426;
-01724; +02200; +20812; +00000; +00182; -00211; -00339;
+02608; +04416; +20140; +00000; +00320; -00183; -00236;
+04108; +01452; +12628; +00000; +00643; -00132; -00244;
+02296; +04764; +14340; +00000; +00523; -00036; -00170;
-00552; +01876; +15772; +00000; +00157; +00012; -00106;
-00384; +05128; +17576; +00000; +00142; +00211; -00019;
+00132; +00696; +18360; +00000; +00386; +00684; -00029;
-01960; +00964; +13168; +00000; +00380; +01087; +00022;
-03668; +04260; +18512; +00000; +00017; +00851; +00317;
+02268; +02744; +23184; +00000; -00376; +00619; +00664;
+09232; +04048; +22752; +00000; -00323; +00796; +00831;
+01612; +06476; +16556; +00000; +00169; +00622; +00644;
+01296; +01576; +10988; +00000; +00499; +00243; +00345;
+00096; +02444; +17868; +00000; +00153; -00066; +00246;
-01264; +05216; +24496; +00000; -00328; -00005; +00167;
+02268; +04308; +24976; +00000; -00215; +00342; +00037;
+00140; +04136; +18288; +00000; +00434; +00443; -00058;
-03004; +02280; +12668; +00000; +00653; +00382; -00085;
+00908; -01288; +22608; +00000; -00015; +00249; -00165;
+00560; +05292; +19768; +00000; -00529; +00177; -00195;
+01672; +03792; +18636; +00000; -00306; +00131; -00369;
+02876; +05220; +16932; +00000; +00421; +00208; -00642;
+02876; +05440; +09784; +00000; +00943; +00496; -00940;
-01052; +01352; +15064; +00000; +00638; +00626; -01377;
-01204; +01404; +15452; +00000; -00057; +00458; -01677;
-02184; +02056; +15424; +00000; -00349; +00379; -01666;
-05592; +04000; +21768; +00000; -00256; +00518; -01543;
+02084; +06872; +21876; +00000; +00073; +01028; -01299;
+01180; +02320; +16648; +00000; +00520; +00967; -01027;
-03656; +02348; +11636; +00000; +00554; +00270; -00757;
+01680; +00044; +21184; +00000; -00157; -00213; -00508;
+03732; +01020; +23444; +00000; -00707; -00077; -00322;
-03560; +05424; +19564; +00000; -00457; +00105; -00208;
+01124; +04300; +22008; +00000; +00357; -00090; -00275;
+00388; +06204; +12104; +00000; +00862; -00313; -00351;
+00340; +03856; +20964; +00000; +00505; -00564; -00357;
-00592; +00508; +19292; +00000; -00024; -00613; -00344;
+01380; +00680; +17548; +00000; -00055; -00394; -00363;
+00852; +00792; +16936; +00000; +00124; -00354; -00405;
-03268; +04556; +16428; +00000; +00199; -00232; -00374;
-00956; +03744; +21600; +00000; +00105; -00027; -00382;
-01080; +05592; +18680; +00000; +00161; +00193; -00376;
-01996; +04648; +18832; +00000; +00287; +00236; -00353;
-00344; +02748; +17160; +00000; +00347; +00209; -00320;
+03516; -00600; +20728; +00000; +00219; +00174; -00315;
-00572; +02384; +18864; +00000; +00079; +00181; -00296;
-04196; +04440; +14008; +00000; +00129; +00111; -00243;
+02880; +03204; +18780; +00000; +00258; +00010; -00277;
-00644; +04080; +17676; +00000; +00419; +00111; -00346;
-04640; +06140; +12884; +00000; +00619; +00132; -00269;
+04620; +01460; +16964; +00000; +00635; -00014; -00298;
+00256; +01480; +16016; +00000; +00395; -00086; -00302;
-00676; +04728; +19316; +00000; +00131; -00022; -00225;
-01120; +03020; +18124; +00000; +00069; +00041; -00257;
-00748; +05196; +17612; +00000; +00383; +00032; -00273;
+01492; +03272; +20332; +00000; +00506; -00028; -00328;
-00548; +04208; +20120; +00000; +00417; +00095; -00336;
-01084; +04128; +18220; +00000; +00325; +00003; -00323;
+02540; +02448; +17388; +00000; +00268; -00167; -00343;
+01816; +04148; +22100; +00000; +00129; -00176; -00375;
-00480; +06552; +23180; +00000; +00129; +00056; -00362;
+00276; +04620; +16580; +00000; +00491; +00205; -00397;
-01744; +02344; +14104; +00000; +00640; +00093; -00398;
+00688; +02248; +17252; +00000; +00160; +00014; -00381;
+04408; +02692; +22936; +00000; -00287; +00104; -00409;
-02044; +05172; +16732; +00000; +00007; +00209; -00418;
-04204; +06244; +12752; +00000; +00720; +00335; -00377;
+00472; +03756; +18620; +00000; +00559; +00647; -00390;
+02000; +03000; +24708; +00000; -00302; +00934; -00400;
-03876; +03268; +14556; +00000; -00613; +00540; -00356;
+01132; +03532; +15020; +00000; -00385; +00182; -00346;
+01204; +01184; +20848; +00000; -00188; +00295; -00434;
-03932; +06200; +17120; +00000; +00033; +00577; -00405;
-00988; +04372; +12040; +00000; +00087; +00416; -00380;
+01704; +02320; +17932; +00000; -00156; +00048; -00332;
+00888; +04920; +21972; +00000; -00468; +00101; -00150;
-01652; +02488; +17720; +00000; -00434; +00289; -00060;
-02336; +04296; +14712; +00000; -00169; +00214; -00132;
+00888; +02192; +15124; +00000; +00066; -00079; -00246;
-01980; +04708; +16364; +00000; +00093; -00311; -00333;
+00964; +03256; +17620; +00000; -00002; -00232; -00381;
-01608; +01668; +16080; +00000; +00025; -00228; -00432;
-02160; +03524; +15912; +00000; +00072; -00251; -00412;
-01328; +02668; +19284; +00000; -00010; -00297; -00463;
-02472; +05660; +20176; +00000; -00032; -00349; -00477;
-01760; +07168; +20804; +00000; +00219; -00365; -00486;
+01484; +05152; +19232; +00000; +00577; -00454; -00501;
+00028; +03364; +15084; +00000; +00637; -00576; -00490;
+00416; -00268; +18044; +00000; +00130; -00704; -00454;
+00176; +00260; +21376; +00000; -00334; -00738; -00475;
-01420; +04860; +21160; +00000; -00205; -00679; -00469;
-00012; +05140; +17348; +00000; +00346; -00535; -00491;
-00088; +07032; +16756; +00000; +00584; -00384; -00489;
+01320; +01872; +21116; +00000; +00178; -00279; -00473;
+01508; +03692; +22104; +00000; -00296; -00293; -00452;
+02404; +01260; +20956; +00000; -00224; -00257; -00458;
+01540; +03224; +18828; +00000; +00136; -00013; -00472;
+00808; +02512; +21084; +00000; +00174; +00345; -00472;
-00992; +05144; +21760; +00000; -00012; +00451; -00455;
+00984; +03024; +16772; +00000; +00052; +00295; -00452;
+00240; +02860; +14908; +00000; +00263; +00071; -00459;
+02700; +02908; +20008; +00000; +00275; +00214; -00446;
-02632; +04288; +18528; +00000; +00278; +00551; -00453;
-02724; +06668; +16556; +00000; +00474; +00629; -00395;
+01420; +03016; +18088; +00000; +00528; +00465; -00402;
+00228; +03112; +20364; +00000; +00217; +00512; -00378;
-03188; +03060; +19224; +00000; -00031; +00611; -00360;
+01896; +02472; +18164; +00000; +00089; +00486; -00395;
+01280; +04648; +18612; +00000; +00319; +00382; -00462;
-02628; +05260; +17144; +00000; +00358; +00506; -00487;
+00272; +04288; +19732; +00000; +00263; +00523; -00508;
+00564; +04948; +17292; +00000; +00216; +00417; -00519;
+00520; +03320; +17124; +00000; +00153; +00357; -00521;
-00912; +02756; +14560; +00000; +00081; +00278; -00538;
-01100; +03580; +17492; +00000; +00040; +00220; -00549;
-01276; +02580; +16200; +00000; +00093; +00306; -00585;
-03104; +05192; +14572; +00000; +00192; +00324; -00585;
-00020; +02364; +12900; +00000; +00131; +00299; -00622;
-01212; +03332; +15468; +00000; -00100; +00155; -00668;
-04108; +05544; +15764; +00000; -00202; +00146; -00646;
-00800; +04400; +20388; +00000; -00152; +00270; -00682;
-00976; +03940; +18096; +00000; +00013; +00361; -00706;
-04016; +06064; +17576; +00000; +00008; +00275; -00672;
-03348; +04460; +20104; +00000; -00269; +00062; -00647;
+01024; +03660; +27576; +00000; -00471; -00034; -00672;
-00716; +04224; +22024; +00000; -00210; +00103; -00670;
-00188; +04188; +18324; +00000; +00137; +00058; -00645;
+04616; +01072; +19716; +00000; -00042; -00091; -00684;
-00644; +03072; +18172; +00000; -00387; -00301; -00700;
-03896; +05888; +14960; +00000; -00317; -00429; -00649;
+07204; +04344; +21776; +00000; +00009; -00199; -00756;
-01552; +04660; +10584; +00000; +00457; +00366; -00848;
-04884; +06848; +12348; +00000; +00358; +00410; -00688;
+07032; -00320; +21224; +00000; -00220; +00243; -00715;
+01368; +05232; +22576; +00000; -00512; +00284; -00786;
-05028; +08300; +15720; +00000; -00060; +00337; -00790;
+02020; +02600; +20080; +00000; +00395; +00279; -00841;
+00120; +04232; +18188; +00000; +00310; +00424; -00799;
-04208; +02320; +19372; +00000; -00216; +00315; -00699;
-00344; +04468; +20904; +00000; -00444; -00047; -00718;
-00216; +04592; +19696; +00000; -00159; -00281; -00815;
-02844; +07900; +20536; +00000; +00280; -00118; -00935;
-02776; +04932; +18408; +00000; +00430; +00233; -00988;
-03140; +01620; +17344; +00000; +00144; +00197; -00925;
-01932; +00808; +19480; +00000; -00340; -00162; -00863;
-00860; +03228; +20676; +00000; -00631; -00360; -00854;
+02296; +07576; +22284; +00000; -00379; -00187; -00921;
+00124; +07172; +19440; +00000; +00269; +00063; -01166;
+00344; +06636; +16724; +00000; +00632; +00259; -01502;
-04720; +00748; +19548; +00000; +00214; +00238; -01817;
-01196; +01628; +18880; +00000; -00341; +00043; -01932;
-03904; +01284; +18200; +00000; -00396; -00119; -01851;
-03400; +05784; +18780; +00000; +00000; -00045; -01713;
+00112; +06108; +16792; +00000; +00465; +00246; -01496;
+00548; +04572; +16272; +00000; +00598; +00318; -01283;
-00264; +02884; +15432; +00000; +00217; +00028; -01101;
+01272; +02392; +18156; +00000; -00239; -00201; -00988;
-02324; +02196; +18564; +00000; -00245; -00135; -00925;
-04124; +04704; +19912; +00000; +00188; +00218; -00852;
-03064; +05668; +15904; +00000; +00717; +00503; -00682;
-02124; +04668; +12240; +00000; +00739; +00410; -00357;
+01612; +04340; +17908; +00000; +00079; -00044; +00047;
+03952; +04568; +20804; +00000; -00533; -00264; +00320;
+04024; +06428; +22088; +00000; -00412; -00070; +00200;
+02164; +08120; +20452; +00000; +00406; +00166; -00336;
-02452; +05836; +12680; +00000; +01073; +00348; -00914;
-00204; +03544; +17360; +00000; +00557; +00401; -01020;
+00020; +03072; +20868; +00000; -00404; +00070; -00937;
+02444; +03304; +18896; +00000; -00523; -00214; -00917;
-01076; +05720; +17096; +00000; +00100; -00180; -00952;
-03524; +07628; +14156; +00000; +00686; +00361; -00960;
-01776; +04944; +18876; +00000; +00528; +00893; -01035;
+01028; +03496; +18112; +00000; +00070; +00783; -01014;
-02268; +03060; +16592; +00000; -00212; +00317; -00942;
+00388; +06460; +19768; +00000; -00306; +00195; -00893;
-01004; +04160; +20564; +00000; -00061; +00576; -01030;
-00728; +07124; +19708; +00000; +00418; +00913; -01173;
-01808; +03648; +14788; +00000; +00517; +00892; -01276;
-01648; +03960; +20196; +00000; -00036; +00435; -01380;
-03024; +03944; +20172; +00000; -00452; +00067; -01422;
-01704; +05972; +21800; +00000; -00308; +00105; -01440;
-02348; +06472; +19612; +00000; +00258; +00368; -01478;
-04504; +04324; +14264; +00000; +00643; +00412; -01589;
-03868; +03752; +16416; +00000; +00259; +00055; -01462;
-00348; +01944; +22972; +00000; -00389; -00249; -01259;
-01244; +05772; +21432; +00000; -00522; -00165; -01102;
-01604; +05468; +20112; +00000; -00013; -00053; -01015;
-02480; +05444; +15488; +00000; +00432; -00068; -00915;
+00256; +02796; +21200; +00000; +00226; -00082; -00860;
-01836; +04168; +18752; +00000; -00110; -00234; -00787;
+00056; +03684; +15816; +00000; -00078; -00452; -00736;
-00416; +04544; +16772; +00000; +00132; -00526; -00732;
-02100; +06592; +17652; +00000; +00298; -00140; -00717;
-00496; +05296; +18604; +00000; +00393; +00093; -00724;
-00268; +04392; +16116; +00000; +00349; -00097; -00728;
+00344; +04068; +18936; +00000; +00117; -00340; -00731;
-00504; +04612; +18788; +00000; +00023; -00370; -00742;
-00688; +06284; +17720; +00000; +00286; -00224; -00756;
+00724; +06328; +16148; +00000; +00570; -00143; -00780;
+01196; +05092; +16136; +00000; +00473; -00173; -00788;
-02016; +03628; +16108; +00000; +00175; -00263; -00780;
-00696; +04180; +16496; +00000; -00006; -00288; -00773;
+01788; +04716; +18680; +00000; +00003; -00166; -00818;
-01780; +06740; +17468; +00000; +00160; +00061; -00838;
-01740; +06044; +17408; +00000; +00320; +00243; -00846;
+00708; +05348; +18036; +00000; +00259; +00253; -00863;
+00212; +03432; +18268; +00000; -00028; +00164; -00854;
-01652; +03668; +18268; +00000; -00295; +00027; -00817;
-00596; +04324; +18760; +00000; -00264; +00086; -00824;
-00700; +05632; +18852; +00000; +00060; +00181; -00862;
-02840; +07092; +15324; +00000; +00344; +00193; -00851;
-00016; +04832; +18400; +00000; +00171; +00111; -00850;
-01400; +04116; +19252; +00000; -00161; +00006; -00837;
-02784; +04348; +18052; +00000; -00210; -00059; -00809;
-01020; +04960; +19540; +00000; -00015; -00023; -00814;
-01548; +05468; +17596; +00000; +00177; +00096; -00812;
-02984; +05356; +17364; +00000; +00109; +00052; -00787;
-01692; +04972; +17956; +00000; -00101; -00158; -00765;
-00516; +04264; +19088; +00000; -00169; -00293; -00763;
-02280; +05592; +18704; +00000; -00025; -00249; -00744;
-02220; +05948; +17360; +00000; +00108; -00143; -00738;
-01828; +05844; +18424; +00000; +00047; -00206; -00748;
-02064; +04964; +19792; +00000; -00138; -00392; -00735;
-01628; +04856; +20272; +00000; -00236; -00480; -00731;
-01316; +04900; +18644; +00000; -00143; -00468; -00741;
-01564; +04692; +18076; +00000; -00071; -00534; -00745;
-01520; +05292; +20960; +00000; -00172; -00667; -00743;
-00560; +05012; +21348; +00000; -00249; -00712; -00758;
-01048; +05496; +19292; +00000; -00132; -00780; -00772;
-00428; +04476; +18976; +00000; -00035; -00886; -00778;
+00364; +03572; +20252; +00000; -00163; -00928; -00799;
-00020; +04760; +20420; +00000; -00270; -00961; -00808;
+00468; +04892; +19884; +00000; -00182; -00976; -00827;
+00292; +05868; +19696; +00000; -00008; -00895; -00844;
+00504; +05224; +20396; +00000; +00068; -00720; -00863;
+00912; +04420; +20196; +00000; +00069; -00622; -00875;
+00412; +03760; +18472; +00000; +00047; -00630; -00865;
+01100; +03552; +18588; +00000; +00011; -00628; -00869;
+00968; +05280; +18156; +00000; +00081; -00532; -00869;
+01276; +05492; +16332; +00000; +00254; -00403; -00872;
+01312; +05180; +16648; +00000; +00379; -00289; -00873;
+00484; +04876; +16840; +00000; +00358; -00164; -00863;
+01208; +04420; +16580; +00000; +00261; -00072; -00859;
+01008; +04092; +15720; +00000; +00211; -00047; -00853;
+00824; +05116; +16216; +00000; +00232; +00008; -00834;
+00500; +05152; +16564; +00000; +00290; +00172; -00830;
-01020; +04332; +15748; +00000; +00355; +00366; -00826;
-01100; +03896; +15144; +00000; +00305; +00485; -00815;
+01600; +04864; +16652; +00000; +00089; +00504; -00825;
+02604; +04960; +17972; +00000; -00092; +00485; -00986;
-01140; +05500; +17440; +00000; -00076; +00460; -01311;
-00484; +05704; +17984; +00000; +00101; +00475; -01572;
-01444; +04772; +17396; +00000; +00235; +00533; -01636;
-01140; +05104; +16944; +00000; +00096; +00597; -01480;
-00020; +04044; +17932; +00000; -00223; +00565; -01265;
+00220; +04240; +19436; +00000; -00344; +00518; -01123;
+00304; +04496; +19172; +00000; -00245; +00604; -01051;
+00848; +05640; +18028; +00000; -00087; +00747; -01040;
+01684; +04896; +17600; +00000; -00094; +00779; -01124;
-01296; +03404; +18848; +00000; -00211; +00707; -01309;
-02488; +03632; +18852; +00000; -00278; +00670; -01373;
-00124; +04556; +18904; +00000; -00235; +00755; -01258;
-00360; +04348; +18536; +00000; -00125; +00822; -01127;
-01256; +03936; +18092; +00000; -00117; +00780; -01005;
-00188; +03648; +18736; +00000; -00215; +00722; -00926;
-00836; +03556; +18852; +00000; -00239; +00636; -00872;
-01196; +04220; +18092; +00000; -00138; +00545; -00818;
-01236; +03984; +19400; +00000; -00043; +00584; -00791;
-02208; +04316; +18616; +00000; +00012; +00636; -00766;
-02364; +04260; +17856; +00000; +00002; +00470; -00731;
-01824; +02976; +19140; +00000; -00075; +00285; -00708;
-02476; +03520; +19416; +00000; -00123; +00282; -00691;
-02784; +04040; +18656; +00000; -00029; +00233; -00671;
-02228; +03920; +18204; +00000; +00124; +00043; -00664;
-02152; +03484; +18440; +00000; +00181; -00128; -00664;
-02748; +04108; +19372; +00000; +00117; -00203; -00651;
-01696; +04160; +20276; +00000; +00065; -00219; -00650;
+00692; +05564; +19604; +00000; +00140; -00293; -00663;
+02156; +04640; +18956; +00000; +00281; -00452; -00716;
-01196; +02692; +18724; +00000; +00359; -00590; -00906;
-00944; +02888; +18300; +00000; +00278; -00611; -01143;
-03176; +03564; +19800; +00000; +00197; -00624; -01343;
-05424; +03012; +19076; +00000; +00258; -00637; -01428;
-04876; +03536; +18688; +00000; +00388; -00587; -01324;
-00808; +04012; +19004; +00000; +00375; -00585; -01118;
+00536; +02768; +20004; +00000; +00225; -00680; -00955;
+00512; +03488; +19180; +00000; +00184; -00770; -00841;
+00112; +04676; +18620; +00000; +00325; -00783; -00757;
+00768; +04700; +19076; +00000; +00458; -00712; -00713;
+01192; +03844; +18340; +00000; +00436; -00695; -00675;
+01116; +03012; +18888; +00000; +00317; -00741; -00646;
+00416; +03648; +18588; +00000; +00262; -00791; -00624;
+00884; +03492; +18968; +00000; +00309; -00805; -00615;
+01032; +04248; +18936; +00000; +00383; -00734; -00620;
+00580; +03788; +17892; +00000; +00389; -00649; -00617;
+00848; +03212; +18096; +00000; +00280; -00714; -00619;
+01312; +02748; +18348; +00000; +00172; -00814; -00627;
+00980; +02392; +17452; +00000; +00158; -00793; -00641;
+00256; +03036; +17248; +00000; +00188; -00675; -00646;
+01296; +03008; +17428; +00000; +00180; -00590; -00651;
+01012; +02660; +16592; +00000; +00107; -00593; -00653;
+00820; +02336; +16708; +00000; +00016; -00556; -00641;
+01480; +02580; +16648; +00000; -00051; -00436; -00641;
+01404; +03048; +16420; +00000; -00080; -00296; -00638;
+01648; +01880; +16756; +00000; -00111; -00181; -00639;
+01764; +01812; +16124; +00000; -00173; -00096; -00637;
+01764; +01376; +16104; +00000; -00270; -00055; -00636;
+01460; +01896; +16072; +00000; -00385; +00014; -00635;
+02116; +01348; +17856; +00000; -00473; +00115; -00634;
+01808; +01024; +18228; +00000; -00493; +00208; -00639;
+01168; +01364; +16316; +00000; -00410; +00206; -00625;
+01964; +00904; +17248; +00000; -00368; +00137; -00627;
+01552; +00536; +17552; +00000; -00414; +00160; -00633;
+00944; +00592; +18036; +00000; -00485; +00251; -00626;
+01412; +00680; +17780; +00000; -00528; +00308; -00632;
+01476; +00484; +18520; +00000; -00525; +00288; -00643;
+00572; +00240; +18104; +00000; -00484; +00266; -00642;
+00820; +00096; +18204; +00000; -00449; +00329; -00639;
+00408; +00720; +18124; +00000; -00416; +00385; -00641;
+00280; +00828; +17556; +00000; -00391; +00399; -00626;
+00788; -00264; +18876; +00000; -00410; +00457; -00627;
-00076; -00060; +18728; +00000; -00445; +00569; -00621;
-00128; +00448; +18360; +00000; -00443; +00638; -00613;
+00128; +00392; +18680; +00000; -00436; +00656; -00614;
+00368; +00164; +19036; +00000; -00414; +00697; -00616;
+00068; +00572; +19028; +00000; -00367; +00747; -00609;
-00040; +00516; +19140; +00000; -00321; +00780; -00606;
-00152; +00196; +18404; +00000; -00309; +00773; -00611;
-00124; -00068; +18816; +00000; -00329; +00737; -00611;
-00284; +00216; +19240; +00000; -00374; +00760; -00604;
-00440; +00200; +19288; +00000; -00405; +00825; -00598;
-00444; -00124; +18896; +00000; -00409; +00803; -00593;
-00216; -00164; +19264; +00000; -00382; +00683; -00591;
-00628; +00428; +19940; +00000; -00306; +00556; -00591;
-00508; +00420; +19876; +00000; -00149; +00444; -00598;
-00040; +00440; +19324; +00000; +00111; +00254; -00608;
+00032; +00448; +18940; +00000; +00365; +00097; -00619;
-00644; +00944; +17756; +00000; +00449; +00012; -00626;
-00260; +00960; +18396; +00000; +00331; +00002; -00631;
+00072; -00096; +20184; +00000; +00157; +00027; -00636;
+00120; +00064; +18808; +00000; +00123; +00033; -00629;
+00340; -00224; +18400; +00000; +00228; -00035; -00630;
+00160; +00124; +17596; +00000; +00348; -00103; -00635;
+00368; +00528; +18852; +00000; +00408; -00095; -00647;
-00016; +01004; +19092; +00000; +00413; -00026; -00655;
-00360; +01116; +18364; +00000; +00428; +00006; -00660;
+00564; +00880; +17744; +00000; +00431; -00056; -00666;
+00108; +00392; +18256; +00000; +00386; -00090; -00674;
+00108; +00396; +18380; +00000; +00314; -00051; -00675;
+00584; +00604; +17820; +00000; +00257; -00036; -00678;
+00412; +00728; +17676; +00000; +00261; -00083; -00683;
+00632; +00256; +17908; +00000; +00262; -00120; -00687;
-00052; +00536; +17904; +00000; +00220; -00091; -00699;
+00192; +01288; +17668; +00000; +00181; -00100; -00705;
+00384; +00684; +18416; +00000; +00165; -00163; -00714;
+00380; +00048; +17536; +00000; +00165; -00189; -00719;
-00084; +00104; +17564; +00000; +00141; -00197; -00723;
-00080; +00440; +18028; +00000; +00090; -00209; -00720;
+00172; +00696; +18368; +00000; +00040; -00190; -00721;
+00424; +00860; +18632; +00000; +00041; -00155; -00718;
-00352; +00712; +17716; +00000; +00069; -00148; -00711;
-00024; +00540; +17900; +00000; +00049; -00160; -00699;
+00312; -00032; +18488; +00000; -00003; -00129; -00692;
+00004; +00080; +18196; +00000; -00047; -00105; -00678;
+00060; +00572; +18128; +00000; -00062; -00102; -00668;
+00252; +00568; +18420; +00000; -00057; -00094; -00654;
+00916; +00076; +18812; +00000; -00026; -00058; -00645;
+00352; +00444; +17796; +00000; -00013; -00061; -00638;
+00296; +00552; +17536; +00000; -00031; -00098; -00626;
+00440; +00556; +18892; +00000; -00084; -00129; -00616;
+00712; +00128; +18984; +00000; -00076; -00057; -00608;
+00652; +01224; +17636; +00000; +00006; -00011; -00608;
+00656; +00676; +16860; +00000; +00061; -00047; -00600;
+01748; -00260; +18584; +00000; -00009; -00065; -00600;
+01036; +00484; +19688; +00000; -00094; +00001; -00599;
+00624; +00956; +18228; +00000; -00055; +00063; -00604;
+01172; +00740; +18680; +00000; +00045; +00017; -00622;
+00892; +00844; +18792; +00000; +00096; -00004; -00630;
+00472; +01144; +19612; +00000; +00063; +00039; -00640;
+00672; +00920; +18548; +00000; +00035; +00089; -00648;
+01040; -00452; +19076; +00000; +00034; +00076; -00662;
+00420; +00816; +19512; +00000; +00067; +00081; -00667;
+00772; +00348; +18116; +00000; +00118; +00140; -00674;
+00884; +00364; +17972; +00000; +00147; +00151; -00692;
+00600; +00056; +18036; +00000; +00124; +00121; -00696;
+00532; +00488; +19380; +00000; +00058; +00173; -00707;
+00152; +01032; +18164; +00000; +00073; +00249; -00712;
+00716; +00688; +17680; +00000; +00124; +00229; -00716;
+00400; +00700; +19432; +00000; +00118; +00243; -00716;
-00112; +00568; +19048; +00000; +00094; +00333; -00712;
+00508; +00104; +17588; +00000; +00107; +00315; -00722;
-00060; -00148; +17640; +00000; +00111; +00222; -00725;
-00224; -00536; +18360; +00000; +00058; +00195; -00724;
-00020; -00432; +19124; +00000; +00009; +00227; -00740;
-00656; +00616; +18216; +00000; +00037; +00208; -00747;
-00516; +00672; +18828; +00000; +00105; +00125; -00754;
-00760; +00360; +18216; +00000; +00159; +00075; -00751;
-00848; +00336; +17376; +00000; +00173; +00056; -00742;
-00560; -00208; +17092; +00000; +00116; -00016; -00729;
+00076; -00584; +18080; +00000; +00012; -00056; -00714;
-00508; -00300; +18748; +00000; -00041; -00016; -00706;
-00984; +00572; +17108; +00000; +00010; +00009; -00690;
+00912; -00068; +18096; +00000; +00052; -00063; -00695;
-00164; -00184; +17684; +00000; +00007; -00086; -00693;
-00872; -00048; +17744; +00000; -00096; -00090; -00671;
+01356; -00284; +19808; +00000; -00202; -00113; -00676;
-00304; +00336; +18440; +00000; -00166; -00160; -00681;
-00192; +00148; +16888; +00000; -00039; -00260; -00660;
+02504; -01280; +18644; +00000; -00058; -00310; -00681;
-00028; -00828; +17892; +00000; -00163; -00302; -00679;
+00032; -00416; +17556; +00000; -00221; -00312; -00664;
+02068; -01008; +19068; +00000; -00204; -00343; -00695;
-00152; +00256; +17568; +00000; -00078; -00380; -00700;
+01404; -00520; +17692; +00000; -00043; -00383; -00702;
+01104; -01460; +18332; +00000; -00150; -00360; -00730;
-00356; -00956; +17116; +00000; -00214; -00356; -00716;
+01992; -02000; +18824; +00000; -00224; -00319; -00735;
+00696; -01364; +18156; +00000; -00156; -00247; -00755;
+00544; -01244; +17040; +00000; -00077; -00184; -00755;
+02296; -01104; +18316; +00000; -00095; -00183; -00777;
+00344; -00564; +19276; +00000; -00135; -00137; -00778;
+01632; -01300; +18128; +00000; -00133; -00017; -00785;
+01388; -01592; +18028; +00000; -00081; -00004; -00801;
+01240; -01692; +16624; +00000; -00059; -00003; -00796;
+01812; -02312; +18860; +00000; -00115; +00034; -00810;
-00020; -01072; +17696; +00000; -00161; +00130; -00798;
+01720; -01344; +18596; +00000; -00110; +00224; -00811;
+00196; -01660; +17976; +00000; -00017; +00204; -00812;
+01436; -02232; +15656; +00000; +00014; +00225; -00800;
+01308; -03044; +18764; +00000; -00133; +00166; -00818;
-01300; -01052; +16988; +00000; -00301; +00260; -00780;
+01196; -02968; +20548; +00000; -00382; +00387; -00800;
-00344; -01652; +19288; +00000; -00318; +00393; -00805;
-00036; -01380; +16488; +00000; -00132; +00284; -00787;
+00660; -01480; +18708; +00000; -00144; +00130; -00800;
-00100; -01908; +19016; +00000; -00258; +00159; -00794;
+00204; -02612; +20672; +00000; -00328; +00244; -00792;
+00084; -02352; +18664; +00000; -00240; +00238; -00790;
+00896; -02304; +17784; +00000; -00129; +00084; -00803;
+00844; -01712; +18316; +00000; -00132; -00008; -00807;
+00564; -02252; +20984; +00000; -00200; +00095; -00815;
+00208; -01000; +19456; +00000; -00168; +00248; -00821;
+01120; -01880; +18588; +00000; -00022; +00177; -00838;
-00028; -01868; +18048; +00000; +00024; +00028; -00840;
+00272; -03312; +19344; +00000; -00055; +00060; -00839;
+00244; -03484; +18656; +00000; -00158; +00139; -00846;
+00752; -01680; +18104; +00000; -00143; +00138; -00847;
-00164; -01332; +19300; +00000; -00103; +00061; -00864;
+00188; -01100; +19492; +00000; -00035; +00082; -00872;
+00924; -02568; +19072; +00000; +00066; +00117; -00893;
+00244; -02768; +16124; +00000; +00127; +00051; -00894;
+00648; -03024; +17676; +00000; -00056; -00053; -00905;
-00064; -01496; +18628; +00000; -00303; +00034; -00915;
+00012; -02388; +20440; +00000; -00306; +00212; -00928;
+00128; -02780; +17408; +00000; -00062; +00226; -00950;
+00140; -01864; +14980; +00000; +00153; +00044; -00967;
+00392; -01808; +16508; +00000; +00026; -00079; -00984;
+00204; -02440; +20072; +00000; -00270; +00049; -00993;
+00064; -02356; +20136; +00000; -00353; +00284; -00998;
+00512; -02336; +17436; +00000; -00128; +00237; -01007;
+00644; -02624; +14948; +00000; +00066; -00045; -01034;
+00412; -02404; +17600; +00000; +00008; -00123; -01036;
+00308; -02664; +20872; +00000; -00196; +00105; -01049;
+00460; -01784; +19560; +00000; -00185; +00263; -01058;
-00292; -02208; +16372; +00000; +00021; +00119; -01066;
+00308; -02504; +16760; +00000; +00120; -00053; -01062;
+00376; -03036; +19256; +00000; -00015; +00010; -01067;
-00628; -02024; +18968; +00000; -00103; +00129; -01048;
+00036; -02060; +16836; +00000; -00045; +00083; -01053;
+00348; -01760; +18612; +00000; +00042; -00043; -01052;
+00292; -02724; +19152; +00000; +00055; -00054; -01056;
+00200; -02352; +19304; +00000; +00051; -00027; -01052;
-00588; -02000; +17928; +00000; +00051; -00084; -01049;
-00588; -02192; +19120; +00000; +00019; -00193; -01046;
-00208; -02336; +20096; +00000; -00003; -00205; -01045;
+00012; -03376; +19952; +00000; +00051; -00172; -01044;
+00208; -02556; +16496; +00000; +00121; -00225; -01054;
+00160; -02884; +19040; +00000; +00044; -00321; -01055;
+00148; -01908; +20840; +00000; -00080; -00234; -01064;
+00084; -01780; +21108; +00000; -00009; -00070; -01072;
+00140; -01612; +16880; +00000; +00221; -00072; -01077;
+00452; -03340; +17408; +00000; +00218; -00195; -01076;
+00800; -03176; +18616; +00000; -00073; -00170; -01070;
+01060; -02408; +20244; +00000; -00244; -00045; -01073;
+00688; -02020; +17624; +00000; -00084; +00060; -01088;
+00608; -01624; +15692; +00000; +00147; +00072; -01098;
+00056; -02984; +15992; +00000; +00112; +00082; -01108;
+00752; -03032; +18376; +00000; -00139; +00100; -01113;
+00184; -02756; +17960; +00000; -00281; +00090; -01113;
-00124; -01260; +18740; +00000; -00238; +00093; -01121;
-00228; -01192; +17572; +00000; -00058; +00052; -01141;
+00212; -02112; +18124; +00000; +00054; -00076; -01165;
+00068; -03180; +17424; +00000; +00005; -00146; -01182;
-00576; -03356; +18040; +00000; -00171; -00178; -01197;
-00404; -03512; +18080; +00000; -00278; -00258; -01223;
-01400; -02116; +18556; +00000; -00261; -00323; -01245;
-01300; -01604; +18556; +00000; -00110; -00328; -01260;
-00420; -01696; +17456; +00000; -00009; -00378; -01293;
+02704; -00144; +16860; +00000; -00055; -00409; -01315;
+05336; +02300; +20368; +00000; -00225; -00522; -01377;
+01176; -01660; +20616; +00000; -00173; -00609; -01557;
+00892; -02240; +17904; +00000; +00037; -00539; -01749;
+00056; -00680; +17328; +00000; +00133; -00363; -01734;
-02372; -02748; +19328; +00000; -00065; -00239; -01489;
-04044; -04308; +20404; +00000; -00288; -00300; -01130;
-04456; -03740; +18536; +00000; -00314; -00356; -00584;
-03784; -04676; +19360; +00000; -00219; -00227; +00099;
-00796; -03264; +17376; +00000; -00204; -00020; +00806;
-00712; -03420; +19032; +00000; -00393; +00029; +01157;
+00596; -04108; +20840; +00000; -00540; -00049; +01272;
+02368; -03140; +19140; +00000; -00455; -00108; +01247;
+03056; -03416; +16292; +00000; -00218; -00105; +00943;
+00076; -03840; +15972; +00000; -00191; -00110; +00410;
-00272; -04152; +19096; +00000; -00373; -00120; -00067;
-00208; -03096; +18904; +00000; -00514; -00125; -00424;
+00120; -02484; +19020; +00000; -00389; -00153; -00700;
-00228; -02532; +15844; +00000; -00201; -00244; -00897;
-00524; -02884; +18268; +00000; -00229; -00323; -01043;
-01124; -02860; +17824; +00000; -00365; -00365; -01160;
-00564; -03844; +18392; +00000; -00341; -00460; -01252;
-00844; -03928; +17048; +00000; -00196; -00550; -01320;
-01168; -03112; +18176; +00000; -00145; -00547; -01375;
-00616; -02372; +19008; +00000; -00182; -00489; -01421;
-00444; -03136; +19904; +00000; -00136; -00432; -01451;
-01428; -03472; +17680; +00000; -00003; -00315; -01456;
+00228; -03292; +18980; +00000; -00005; -00208; -01474;
-00220; -03180; +19912; +00000; -00096; -00167; -01479;
-00468; -03160; +20548; +00000; -00063; -00124; -01474;
-00248; -03308; +18348; +00000; +00138; -00041; -01471;
+00372; -03204; +16772; +00000; +00240; -00006; -01471;
+01200; -03376; +18192; +00000; +00105; -00084; -01465;
+00552; -02632; +17264; +00000; -00053; -00108; -01448;
+01472; -03128; +18248; +00000; +00029; -00001; -01451;
+00172; -02372; +16092; +00000; +00155; +00174; -01444;
+00564; -02636; +17928; +00000; +00071; +00236; -01433;
+01472; -03860; +17744; +00000; -00133; +00083; -01436;
+00972; -02900; +19548; +00000; -00196; -00103; -01436;
-00148; -02612; +17840; +00000; -00099; -00114; -01432;
+00380; -03204; +19968; +00000; -00018; -00048; -01454;
+00188; -02024; +19428; +00000; -00042; -00063; -01460;
-00032; -03180; +21060; +00000; -00113; -00157; -01463;
-00648; -02644; +19552; +00000; -00203; -00211; -01462;
-00628; -03368; +21396; +00000; -00239; -00173; -01463;
-01100; -03908; +19660; +00000; -00206; -00073; -01458;
-01124; -03428; +20624; +00000; -00166; +00008; -01438;
+00020; -03592; +18936; +00000; -00157; +00039; -01437;
-01096; -02488; +18452; +00000; -00088; +00007; -01421;
-01168; -03108; +18708; +00000; +00000; +00092; -01401;
-00352; -02200; +20908; +00000; +00073; +00313; -01388;
-01296; -01852; +18416; +00000; +00128; +00516; -01368;
-01072; -02096; +18936; +00000; +00141; +00460; -01339;
-00088; -03580; +18660; +00000; +00084; +00344; -01315;
-00268; -02548; +20516; +00000; +00007; +00345; -01276;
+00252; -02268; +18896; +00000; +00070; +00366; -01257;
+00076; -02884; +17240; +00000; +00200; +00242; -01251;
-01232; -02328; +18288; +00000; +00212; +00156; -01237;
-00084; -02324; +21620; +00000; +00139; +00144; -01234;
-00468; -01036; +21088; +00000; +00210; +00158; -01254;
-01016; -01568; +19000; +00000; +00400; +00067; -01256;
+00824; -01708; +20316; +00000; +00422; -00032; -01272;
+00120; -01932; +22356; +00000; +00294; -00033; -01282;
+00116; -01796; +20088; +00000; +00339; +00012; -01282;
+00960; -01912; +18120; +00000; +00514; -00040; -01299;
-00340; -02284; +15420; +00000; +00596; -00102; -01300;
-00164; -03344; +16168; +00000; +00476; -00199; -01294;
+00896; -02588; +17156; +00000; +00349; -00164; -01307;
-01424; -01812; +13508; +00000; +00412; -00100; -01306;
-01304; -01976; +11208; +00000; +00524; -00124; -01297;
-00016; -02392; +12248; +00000; +00426; -00175; -01299;
-01960; -02512; +13412; +00000; +00212; -00143; -01274;
-01456; -01972; +14952; +00000; +00039; +00009; -01244;
+01024; -01704; +20404; +00000; -00022; +00201; -01253;
-05200; -02560; +11760; +00000; +00052; +00287; -01226;
+00984; -01028; +16932; +00000; -00026; +00126; -01178;
+03980; -04668; +20808; +00000; -00363; -00032; -01239;
-03684; -01464; +19224; +00000; -00431; -00024; -01192;
-00928; -02684; +16836; +00000; -00218; -00110; -01144;
+02632; -03232; +21716; +00000; -00034; -00348; -01216;
-03372; +00052; +16132; +00000; +00086; -00429; -01183;
-00304; -00600; +19264; +00000; -00011; -00499; -01145;
+02496; -04020; +21324; +00000; -00099; -00492; -01183;
-01836; -02416; +18092; +00000; -00046; -00420; -01149;
-00400; -01840; +18148; +00000; -00040; -00468; -01102;
+01792; -02916; +16984; +00000; -00110; -00552; -01114;
-00280; -03056; +17920; +00000; -00050; -00607; -01096;
-01224; -02720; +16716; +00000; +00041; -00512; -01054;
-00016; -00900; +20752; +00000; +00119; -00274; -01050;
-00512; -01092; +16516; +00000; +00139; -00188; -01036;
+00416; -01692; +19012; +00000; +00093; -00351; -01016;
+01172; -04388; +19500; +00000; +00015; -00388; -01005;
+00244; -02188; +20156; +00000; -00030; -00212; -00989;
+00572; -01532; +17868; +00000; -00008; -00149; -00971;
+01576; -01608; +19532; +00000; -00016; -00300; -00952;
+02548; -01320; +21560; +00000; -00076; -00284; -00929;
+01556; -01536; +20440; +00000; -00122; -00028; -00909;
+01724; -02692; +18672; +00000; -00110; +00057; -00896;
+01488; -03436; +19764; +00000; -00168; -00081; -00883;
+01936; -02200; +20540; +00000; -00288; -00074; -00876;
+00828; -00740; +16992; +00000; -00245; -00003; -00882;
+01332; -01924; +13784; +00000; -00064; -00048; -00876;
+02828; -03992; +17724; +00000; -00045; -00052; -00885;
-01408; -01840; +17004; +00000; -00178; +00151; -00850;
-00088; -01628; +15732; +00000; -00298; +00287; -00818;
+01568; -03260; +18772; +00000; -00318; +00152; -00817;
-01284; -02468; +20944; +00000; -00288; +00180; -00768;
-02692; -03040; +18668; +00000; -00179; +00488; -00729;
+01872; -03328; +19280; +00000; -00092; +00505; -00734;
+00276; -03060; +17956; +00000; -00154; +00323; -00731;
-00824; -01432; +19596; +00000; -00319; +00217; -00676;
+01484; -02004; +20680; +00000; -00321; +00330; -00686;
+01176; -00580; +20860; +00000; -00045; +00472; -00691;
+00564; -00460; +18664; +00000; +00262; +00551; -00661;
+00732; -03064; +19184; +00000; +00222; +00576; -00632;
+02192; -03596; +19848; +00000; +00008; +00508; -00605;
+01572; -05436; +19568; +00000; -00121; +00401; -00626;
-01100; -00468; +18088; +00000; +00098; +00355; -00602;
+00016; -02616; +14160; +00000; +00385; +00361; -00614;
+03160; -01636; +19268; +00000; +00412; +00353; -00651;
-00728; -02928; +15700; +00000; +00325; +00361; -00666;
-02844; -01336; +16136; +00000; +00362; +00248; -00610;
+01224; -05472; +14788; +00000; +00322; +00215; -00632;
+00472; -01656; +20548; +00000; +00169; +00310; -00625;
-01820; -00628; +18856; +00000; +00127; +00367; -00598;
-00840; -01380; +18904; +00000; +00314; +00296; -00595;
+01324; -03936; +18576; +00000; +00464; +00178; -00616;
+00656; -03592; +19480; +00000; +00317; +00204; -00610;
-02540; -01232; +19936; +00000; +00032; +00197; -00573;
+00928; -00360; +19448; +00000; +00025; +00186; -00570;
+00776; -02764; +18904; +00000; +00231; +00106; -00584;
-01684; -01916; +17124; +00000; +00309; +00219; -00527;
+01632; -04412; +20688; +00000; +00118; +00310; -00511;
+01324; -01668; +19156; +00000; +00035; +00141; -00494;
-00116; -02016; +19912; +00000; +00127; +00008; -00463;
-00096; -02068; +20080; +00000; +00323; +00081; -00429;
+00544; -01500; +17820; +00000; +00557; +00259; -00400;
+00840; -01056; +17660; +00000; +00619; +00161; -00366;
+00052; -02572; +16668; +00000; +00482; -00127; -00331;
-00236; -01844; +18508; +00000; +00372; -00278; -00280;
+02816; -02168; +20652; +00000; +00421; -00127; -00266;
+02416; -00476; +19492; +00000; +00536; +00010; -00247;
+00328; -04020; +15396; +00000; +00587; -00061; -00195;
+01120; -04784; +17292; +00000; +00424; -00246; -00151;
+02212; -02840; +19260; +00000; +00227; -00150; -00127;
+01884; +02060; +18120; +00000; +00243; +00045; -00099;
+02968; -01456; +15376; +00000; +00519; -00013; -00124;
+01404; -02368; +13988; +00000; +00674; -00170; -00116;
+01432; -03880; +16616; +00000; +00438; -00138; -00097;
+00380; -02196; +17460; +00000; +00037; -00088; -00055;
-01516; -01700; +16464; +00000; -00039; -00039; +00014;
+02568; -02616; +21220; +00000; +00066; +00069; +00057;
+02524; -00528; +16724; +00000; +00274; +00306; +00170;
+02144; -01496; +15228; +00000; +00310; +00222; +00306;
+01920; -04120; +15072; +00000; +00003; +00061; +00430;
+07756; +00284; +21560; +00000; -00427; +00156; +00629;
+01140; -01964; +15020; +00000; -00389; +00487; +00548;
-01444; -00204; +17816; +00000; +00033; +00498; +00354;
+00948; -01700; +15164; +00000; +00224; +00490; +00293;
+02760; -02180; +20232; +00000; -00174; +00630; +00209;
-00572; -00420; +16052; +00000; -00407; +00533; +00200;
+02204; -02240; +20024; +00000; -00258; +00290; +00190;
+01792; -02564; +18940; +00000; -00095; +00281; +00130;
+01400; +01672; +17792; +00000; -00095; +00367; +00137;
+02844; -02732; +17996; +00000; -00180; +00125; +00121;
-00596; -02072; +20048; +00000; -00259; +00016; +00138;
+02284; -02380; +22676; +00000; -00308; +00284; +00139;
+01008; -01164; +18972; +00000; -00232; +00391; +00128;
+00788; -02376; +16236; +00000; -00185; +00257; +00165;
+03628; -04524; +18204; +00000; -00408; +00208; +00145;
+02648; +00208; +16660; +00000; -00555; +00232; +00138;
+00276; -02012; +17400; +00000; -00454; +00151; +00149;
-02188; -00960; +18084; +00000; -00256; +00339; +00167;
+04668; +00736; +19452; +00000; -00110; +00732; +00182;
+06020; -04392; +18316; +00000; -00204; +00668; +00153;
-07196; -01360; +16704; +00000; -00472; +00284; +00255;
+05032; -02016; +22264; +00000; -00680; +00191; +00326;
+04864; -04240; +26360; +00000; -00622; +00390; +00173;
-02768; -01048; +13144; +00000; -00018; +00380; +00210;
-00732; -04040; +14648; +00000; +00159; +00115; +00246;
-00140; -01176; +17368; +00000; -00254; -00053; +00211;
+03220; -01088; +22680; +00000; -00582; +00048; +00231;
-00076; -00520; +19324; +00000; -00468; +00260; +00210;
+00980; -02824; +16924; +00000; +00082; +00220; +00261;
+01496; -02260; +13704; +00000; +00360; -00080; +00226;
-00336; -03768; +17556; +00000; +00102; -00253; +00245;
+00488; -00560; +22732; +00000; -00349; -00176; +00281;
+02568; -02564; +22580; +00000; -00403; +00084; +00240;
+00444; +01152; +20000; +00000; +00016; +00067; +00199;
+03036; -04128; +14704; +00000; +00438; -00214; +00153;
+03992; -03548; +17228; +00000; +00309; -00521; +00117;
-01464; -01212; +18552; +00000; -00112; -00466; +00177;
+03772; -02424; +22912; +00000; -00182; -00112; +00199;
+02856; +00108; +20920; +00000; +00252; +00068; +00129;
+00080; +00044; +12644; +00000; +00807; -00001; +00186;
+00672; -04264; +18088; +00000; +00602; -00020; +00198;
+02524; +00016; +22488; +00000; +00043; +00186; +00256;
+05056; -04636; +26564; +00000; -00023; +00408; +00243;
-01568; +01160; +18412; +00000; +00441; +00593; +00314;
+02340; -02988; +14032; +00000; +00827; +00649; +00317;
+01428; -01328; +19368; +00000; +00584; +00332; +00366;
+02876; -03512; +22112; +00000; +00155; +00488; +00544;
+02924; -02420; +24336; +00000; +00146; +00784; +00623;
-02468; -01448; +14400; +00000; +00634; +00860; +00633;
-02292; -02496; +13836; +00000; +00939; +00586; +00748;
+04716; +01016; +20788; +00000; +00586; +00432; +01110;
+03512; -00548; +19972; +00000; +00243; +00692; +01295;
+01880; -02064; +17172; +00000; +00333; +00764; +01129;
+00152; -00356; +12916; +00000; +00577; +00559; +00940;
+01836; -00392; +14952; +00000; +00616; +00357; +00861;
+03812; +01408; +19104; +00000; +00401; +00345; +00784;
+01140; +02440; +18720; +00000; +00228; +00551; +00603;
+01592; -02048; +21212; +00000; +00170; +00725; +00415;
-02292; +00760; +17456; +00000; +00262; +00696; +00389;
+00528; +00340; +19404; +00000; +00299; +00501; +00339;
+00768; +00692; +18380; +00000; +00317; +00356; +00250;
+01808; +01660; +19920; +00000; +00389; +00299; +00220;
+01688; +01924; +18512; +00000; +00457; +00342; +00164;
+02028; +00840; +18748; +00000; +00545; +00323; +00087;
+03824; +00620; +16276; +00000; +00560; +00125; -00053;
-00964; -00376; +19268; +00000; +00410; -00116; -00216;
-00632; +00528; +19132; +00000; +00252; -00056; -00257;
-02344; +01216; +18508; +00000; +00348; -00010; -00195;
-00904; +02140; +15640; +00000; +00549; -00102; -00132;
-03672; +01292; +12628; +00000; +00527; -00260; -00061;
-02748; -01656; +15976; +00000; +00153; -00381; +00029;
-01032; +01800; +18032; +00000; -00230; -00397; +00185;
+03048; +00592; +17428; +00000; -00177; -00353; +00204;
+03376; +00004; +15448; +00000; +00023; -00345; +00202;
+00596; +01608; +14596; +00000; +00070; -00247; +00300;
+02120; +02804; +17956; +00000; -00211; -00205; +00398;
-00912; -01644; +17924; +00000; -00434; -00016; +00346;
+02720; +01112; +19584; +00000; -00505; +00131; +00344;
+02044; +00884; +16716; +00000; -00471; +00206; +00366;
+04104; +01452; +19396; +00000; -00490; +00207; +00395;
+01364; -00128; +17112; +00000; -00494; +00364; +00373;
+02372; +00412; +18136; +00000; -00539; +00389; +00284;
+05792; +02864; +20240; +00000; -00606; +00483; +00256;
+04092; +00988; +22048; +00000; -00543; +00522; +00008;
+01988; +00104; +17300; +00000; -00284; +00542; -00335;
-02036; +01816; +18904; +00000; -00227; +00530; -00564;
+02928; -00964; +22416; +00000; -00529; +00561; -00442;
-01260; -01432; +19884; +00000; -00742; +00561; -00254;
-00264; -00160; +18584; +00000; -00524; +00478; -00118;
+02168; +00584; +19932; +00000; -00215; +00363; -00051;
+00120; +01048; +18752; +00000; -00048; +00349; -00002;
-01848; +03740; +17864; +00000; +00018; +00277; +00083;
+03560; -02076; +22076; +00000; -00007; +00266; +00045;
-01640; +02452; +17660; +00000; -00096; +00384; +00099;
+01020; +01616; +21144; +00000; -00204; +00441; +00151;
+00612; -01332; +20748; +00000; -00223; +00355; +00017;
-00320; +00480; +16980; +00000; -00121; +00394; -00044;
-00748; +00784; +18496; +00000; -00030; +00298; -00041;
+00776; -01356; +21012; +00000; -00019; +00322; +00067;
-02608; +01324; +20740; +00000; -00060; +00511; +00143;
-01244; +04144; +20596; +00000; -00020; +00453; +00201;
+06260; -04364; +21120; +00000; -00022; +00267; +00176;
-02928; +01728; +22608; +00000; -00166; +00300; +00184;
+01704; -00224; +19368; +00000; -00148; +00282; +00210;
+03040; +01768; +20812; +00000; -00027; -00046; +00155;
+01764; +00648; +14900; +00000; +00174; -00251; +00141;
-03808; +00084; +19776; +00000; +00241; -00462; +00148;
+00188; +02424; +20176; +00000; +00271; -00256; +00192;
+05044; -02220; +17720; +00000; +00270; -00201; +00101;
-00716; -00124; +10880; +00000; +00226; -00620; +00133;
+02876; -01828; +17840; +00000; -00033; -00966; +00141;
-03004; +01756; +22688; +00000; -00177; -00814; +00092;
+03672; +01988; +16136; +00000; +00192; -00249; +00049;
+01212; +02596; +15072; +00000; +00595; -00324; -00090;
-02088; +01712; +11924; +00000; +00510; -00539; -00012;
+04720; -02728; +22228; +00000; -00193; -00602; -00047;
-00356; -01916; +17704; +00000; -00446; -00364; -00065;
-01820; +01916; +17380; +00000; -00183; -00124; +00014;
+03136; -00164; +20084; +00000; +00090; -00006; -00019;
+00576; +02788; +16036; +00000; +00230; -00119; -00040;
-00492; +02920; +15576; +00000; +00156; -00375; +00022;
+00412; -01000; +17692; +00000; +00056; -00420; +00020;
+01760; -00776; +17172; +00000; +00096; -00172; +00041;
+00884; +01276; +15672; +00000; +00192; -00062; +00059;
+00144; +02140; +18080; +00000; +00175; -00203; +00112;
-01364; -00772; +16396; +00000; +00085; -00270; +00141;
+04196; -01192; +22392; +00000; -00006; -00200; +00121;
+00440; +04092; +22288; +00000; +00151; -00131; +00092;
-01680; +03472; +17832; +00000; +00503; -00186; +00129;
+01408; -00308; +19424; +00000; +00655; -00373; +00098;
+02400; -01208; +16416; +00000; +00521; -00439; +00095;
+01672; +01544; +21244; +00000; +00258; -00473; +00115;
+01012; +00728; +17304; +00000; +00279; -00411; +00121;
+01076; +04400; +19564; +00000; +00595; -00262; +00103;
+00408; +01136; +18808; +00000; +00800; +00020; +00097;
+03192; +00048; +19172; +00000; +00567; +00282; +00072;
+01260; +00408; +19544; +00000; +00349; +00220; +00077;
-02772; -00112; +17956; +00000; +00350; +00142; +00105;
+00624; +01196; +23488; +00000; +00405; +00329; +00082;
+01708; +00956; +18792; +00000; +00514; +00606; +00050;
-00420; +00484; +16336; +00000; +00576; +00433; +00067;
+01932; -00088; +16824; +00000; +00413; +00084; +00057;
+00128; -00228; +16280; +00000; +00201; -00019; +00033;
-00808; +00200; +17552; +00000; +00237; +00076; +00034;
+01776; +00504; +19416; +00000; +00416; +00258; +00021;
+00920; +00388; +15432; +00000; +00582; +00378; -00005;
-00292; +00256; +15916; +00000; +00469; +00297; +00013;
+01972; -00568; +19724; +00000; +00154; +00157; +00007;
+02780; +01224; +21576; +00000; +00007; +00348; +00017;
-00232; +00944; +19956; +00000; +00210; +00591; +00028;
-00012; +01172; +15960; +00000; +00617; +00540; +00032;
+02632; +00048; +14096; +00000; +00805; +00244; -00003;
+01336; -01496; +16312; +00000; +00519; +00057; +00016;
+01096; -02120; +17876; +00000; +00120; +00270; +00025;
+00544; +00548; +18512; +00000; +00042; +00568; +00010;
+00844; -00320; +16968; +00000; +00338; +00553; -00011;
-00720; +01164; +13148; +00000; +00578; +00294; -00003;
+00916; +00368; +15236; +00000; +00394; +00166; +00014;
-00716; -00612; +15704; +00000; +00065; +00191; +00014;
-01140; -00032; +17032; +00000; -00039; +00225; +00037;
-00812; -01528; +16056; +00000; +00032; +00165; +00043;
-01952; +00380; +13820; +00000; +00110; +00021; +00058;
+00228; -01756; +14432; +00000; -00003; -00185; +00066;
+00064; -02424; +20488; +00000; -00313; -00260; +00038;
-03696; +00928; +18988; +00000; -00335; -00170; +00063;
+01544; +00900; +22520; +00000; -00133; -00225; +00035;
+01328; +04436; +18832; +00000; +00267; -00450; -00006;
+01764; +00316; +18220; +00000; +00404; -00563; +00027;
+00928; -02800; +21576; +00000; +00038; -00427; +00022;
+00056; -01156; +20364; +00000; -00312; -00235; +00037;
+00724; +01248; +18336; +00000; -00282; -00329; +00048;
+03796; -00496; +15996; +00000; -00118; -00511; +00028;
+01220; -01480; +18760; +00000; -00027; -00441; -00010;
-01776; +01992; +19756; +00000; +00065; -00196; +00027;
+01840; +00676; +20416; +00000; +00080; -00012; +00020;
+01356; -00208; +17560; +00000; +00066; -00112; -00002;
+00604; +00696; +18292; +00000; -00017; -00247; +00034;
+04236; -02708; +22100; +00000; -00125; -00147; -00001;
+01004; -01200; +17648; +00000; -00087; +00006; -00017;
+00916; -00876; +12396; +00000; +00025; -00138; -00009;
+02916; +00036; +16832; +00000; -00100; -00435; +00004;
+02024; -00876; +15308; +00000; -00202; -00383; +00014;
+01628; -00552; +18268; +00000; -00076; -00140; -00030;
-05156; -01404; +15764; +00000; +00211; +00125; +00021;
-01680; +00084; +19276; +00000; +00184; +00479; +00391;
+01656; -00228; +18768; +00000; -00194; +00594; +00970;
+03664; +00752; +19788; +00000; -00530; +00397; +01430;
+03888; -01508; +19908; +00000; -00678; +00275; +01587;
+07780; -00780; +24444; +00000; -00615; +00473; +01354;
-01336; -00080; +16160; +00000; -00237; +00570; +00862;
+00428; +00964; +17704; +00000; +00230; +00158; +00451;
+01828; -01768; +16324; +00000; +00409; -00234; +00228;
-00328; -01412; +20852; +00000; +00175; -00174; +00078;
+02120; +01012; +20796; +00000; -00036; +00116; -00031;
-00864; -00664; +21448; +00000; +00060; +00089; -00272;
+02100; -00408; +18392; +00000; +00324; -00069; -00495;
+01076; -00720; +17516; +00000; +00451; -00088; -00703;
-04280; -02280; +18264; +00000; +00428; +00006; -00965;
-02652; -00276; +18892; +00000; +00356; +00230; -01071;
-02716; +00684; +18636; +00000; +00368; +00394; -00943;
-00616; -00964; +16624; +00000; +00396; +00416; -00708;
+02312; +01244; +19692; +00000; +00195; +00479; -00485;
+01688; -01064; +18140; +00000; -00067; +00585; -00318;
-00784; -00564; +19088; +00000; -00136; +00604; -00151;
+03428; -00976; +22328; +00000; -00077; +00676; -00063;
+00968; +01468; +19320; +00000; +00077; +00732; -00035;
+00128; +01020; +15468; +00000; +00191; +00575; +00014;
-01456; -02292; +18744; +00000; +00077; +00371; +00057;
-01348; +01164; +20592; +00000; -00161; +00441; +00223;
+00240; +02604; +21424; +00000; -00261; +00490; +00484;
+00200; -00232; +18804; +00000; -00054; +00399; +00696;
+00080; -00544; +14088; +00000; +00157; +00169; +00989;
+00568; -02272; +13428; +00000; -00089; -00064; +01305;
+02416; -00908; +17160; +00000; -00645; -00191; +01579;
+05808; +02024; +20256; +00000; -00911; -00095; +01663;
+00764; +01816; +22524; +00000; -00678; +00218; +01355;
-03404; +01892; +16724; +00000; -00020; +00297; +00876;
-00116; -00704; +08924; +00000; +00364; +00015; +00569;
+02024; -03896; +16024; +00000; -00251; -00305; +00348;
+00164; -01296; +18344; +00000; -01137; -00202; +00223;
+01508; +00596; +19976; +00000; -01463; +00148; +00112;
+02608; +00008; +18912; +00000; -01141; +00303; -00090;
+01052; +01060; +14392; +00000; -00512; +00091; -00359;
-02972; +00228; +16396; +00000; -00064; -00254; -00742;
-04384; -01448; +19008; +00000; -00101; -00275; -01137;
-03304; -00500; +17372; +00000; -00388; -00058; -01309;
-04772; -01920; +19644; +00000; -00598; -00133; -01275;
+00452; -04972; +20928; +00000; -00637; -00320; -01044;
-02372; -00360; +17156; +00000; -00588; -00368; -00684;
+01060; -03544; +20448; +00000; -00510; -00389; -00403;
-01580; +00276; +19528; +00000; -00437; -00294; -00272;
+01928; -00168; +21800; +00000; -00260; -00250; -00309;
+03536; +00344; +21048; +00000; -00048; -00468; -00406;
+01480; +00512; +17872; +00000; +00090; -00537; -00424;
+00424; -00968; +21280; +00000; -00006; -00412; -00447;
+01996; -04548; +20296; +00000; -00077; -00286; -00504;
-01632; -00516; +19308; +00000; +00079; -00365; -00522;
-00024; +00212; +16184; +00000; +00240; -00391; -00521;
+02608; -01744; +19644; +00000; +00181; -00378; -00594;
+00312; -02516; +18900; +00000; +00228; -00333; -00591;
-00268; +00160; +25316; +00000; +00374; -00245; -00604;
-04180; +03976; +22128; +00000; +00558; +00093; -00614;
+01352; +01496; +23572; +00000; +00752; +00210; -00630;
+00236; -05876; +19448; +00000; +00759; -00116; -00651;
-01656; -06640; +23968; +00000; +00474; -00132; -00575;
-04572; +00460; +25060; +00000; +00095; +00167; -00564;
+00352; -00632; +13992; +00000; +00523; +00113; -00581;
+02336; -00936; +20140; +00000; +01127; -00418; -00660;
-04464; +00040; +10960; +00000; +01569; -00164; -00610;
-00940; -02396; +20780; +00000; +01174; +00379; -00591;
+00928; -00248; +15984; +00000; +00693; +00430; -00569;
+01740; -02612; +16464; +00000; +00707; +00053; -00527;
-02284; +00572; +17172; +00000; +00908; +00041; -00524;
-02264; -01832; +16680; +00000; +01117; +00549; -00540;
+02644; -00132; +14984; +00000; +01123; +00651; -00571;
-00200; -00368; +12284; +00000; +00970; +00301; -00541;
-00960; +00972; +14292; +00000; +00736; +00079; -00477;
+02128; -01652; +18036; +00000; +00576; +00167; -00534;
-00684; +01488; +16580; +00000; +00757; +00258; -00541;
-00940; -00364; +12832; +00000; +01076; +00195; -00494;
-00172; -00608; +14644; +00000; +01012; +00047; -00470;
-00316; -00148; +16868; +00000; +00599; -00023; -00464;
-00764; -01096; +18136; +00000; +00303; -00059; -00473;
-00120; -01648; +17056; +00000; +00331; -00001; -00497;
-00780; -00524; +16812; +00000; +00474; +00048; -00547;
-01932; +00976; +16260; +00000; +00512; +00020; -00567;
-01236; -00240; +16908; +00000; +00402; -00113; -00582;
-00352; -00360; +17024; +00000; +00236; -00172; -00593;
-01100; -00668; +18184; +00000; +00066; -00091; -00599;
-01112; +00008; +17408; +00000; +00070; -00073; -00602;
-00124; -00688; +16096; +00000; +00204; -00141; -00619;
-01000; -01440; +17008; +00000; +00201; -00152; -00630;
-01340; -00004; +17224; +00000; +00024; -00060; -00617;
+00036; -00264; +19448; +00000; -00042; -00024; -00624;
-01368; +00184; +16764; +00000; +00095; -00019; -00630;
-01264; -00116; +16596; +00000; +00143; -00001; -00616;
-00220; -01056; +18216; +00000; -00023; +00003; -00629;
-01396; -00260; +18108; +00000; -00167; -00013; -00625;
+00004; -01616; +18324; +00000; -00168; -00023; -00635;
-00856; -00860; +17560; +00000; -00132; -00044; -00654;
-00768; -00592; +17092; +00000; -00159; -00049; -00661;
-01012; -00796; +17964; +00000; -00262; -00113; -00676;
+00272; -00004; +18720; +00000; -00281; -00099; -00691;
-00740; +00060; +18240; +00000; -00214; -00082; -00704;
-00652; +00128; +17976; +00000; -00152; -00077; -00705;
-00292; -00772; +18400; +00000; -00236; -00104; -00719;
-00156; -00928; +19548; +00000; -00344; -00090; -00725;
-00568; -01900; +18308; +00000; -00324; -00092; -00749;
-00948; -00080; +17784; +00000; -00230; -00105; -00765;
-01288; -00792; +18972; +00000; -00203; -00118; -00783;
-01072; -00424; +19228; +00000; -00228; -00137; -00792;
+00108; -00420; +19312; +00000; -00218; -00129; -00802;
-00836; -00768; +19084; +00000; -00196; -00149; -00813;
-01008; -00248; +18704; +00000; -00183; -00160; -00823;
-00492; -00784; +19860; +00000; -00197; -00170; -00837;
-00888; -00248; +20072; +00000; -00213; -00136; -00849;
-01072; -01112; +19104; +00000; -00229; -00148; -00862;
-00848; -00604; +19156; +00000; -00203; -00182; -00885;
-01156; -00452; +19580; +00000; -00150; -00172; -00896;
-00680; -00308; +20336; +00000; -00126; -00128; -00912;
-01552; -00356; +18908; +00000; -00124; -00087; -00922;
-00944; -00892; +19032; +00000; -00144; -00088; -00927;
-00884; -01116; +19748; +00000; -00166; -00049; -00944;
-00936; -00088; +19388; +00000; -00152; +00031; -00949;
-00904; -01380; +18232; +00000; -00111; +00062; -00968;
-00616; -01112; +18136; +00000; -00112; +00055; -00983;
-00300; -01264; +19356; +00000; -00143; +00090; -00999;
-00404; -00064; +19300; +00000; -00134; +00118; -01011;
-00792; -00192; +19352; +00000; -00063; +00176; -01026;
-01800; -00124; +18044; +00000; -00015; +00202; -01030;
-00004; -01452; +18700; +00000; -00054; +00167; -01047;
-01284; -01280; +17936; +00000; -00140; +00169; -01064;
-01852; -00792; +17776; +00000; -00143; +00219; -01068;
-01428; -00764; +19116; +00000; -00090; +00211; -01098;
-01444; -00944; +18188; +00000; -00009; +00224; -01107;
-01524; -01304; +18312; +00000; -00008; +00224; -01118;
-01920; -01324; +18332; +00000; -00070; +00202; -01121;
-01216; -00832; +19568; +00000; -00097; +00193; -01132;
-02160; -01020; +19332; +00000; -00045; +00228; -01141;
-01524; -00584; +18680; +00000; +00059; +00224; -01154;
-01712; -00956; +17812; +00000; +00097; +00159; -01171;
-02244; -01016; +18732; +00000; +00067; +00124; -01174;
-01932; -01940; +19140; +00000; +00042; +00122; -01187;
-02748; -00740; +18128; +00000; +00097; +00129; -01187;
-02132; -00708; +17372; +00000; +00155; +00077; -01195;
-02052; -00748; +19072; +00000; +00141; +00005; -01206;
-02808; -01576; +17912; +00000; +00123; +00011; -01191;
-01852; -01040; +18400; +00000; +00119; +00017; -01178;
-01816; -00672; +18176; +00000; +00124; -00016; -01172;
-01364; -00752; +18296; +00000; +00100; -00060; -01171;
-01832; -00860; +18792; +00000; +00079; -00066; -01181;
-01192; -00188; +19784; +00000; +00105; -00010; -01202;
-02696; -00480; +18172; +00000; +00171; +00010; -01216;
-00988; -00908; +18104; +00000; +00170; -00059; -01230;
-01444; -01692; +18728; +00000; +00084; -00081; -01246;
-01848; -01492; +17536; +00000; +00027; -00053; -01255;
-00820; -00788; +18052; +00000; +00072; -00106; -01279;
-02360; -00880; +17700; +00000; +00147; -00087; -01300;
-01564; -00136; +18172; +00000; +00154; -00008; -01311;
-00920; -00612; +18724; +00000; +00103; +00001; -01329;
-01796; -01500; +17884; +00000; +00036; -00022; -01337;
-01340; -01320; +17904; +00000; +00003; +00001; -01347;
-02064; -01356; +18620; +00000; +00017; +00076; -01358;
-01328; -01396; +18588; +00000; +00066; +00117; -01378;
-02224; -00256; +17692; +00000; +00106; +00089; -01386;
-01488; -00700; +17736; +00000; +00096; +00087; -01389;
-01224; -01356; +18324; +00000; +00060; +00111; -01401;
-02312; -01440; +17924; +00000; +00046; +00153; -01406;
-01864; -00504; +17920; +00000; +00058; +00164; -01415;
-02596; -00828; +18132; +00000; +00077; +00181; -01425;
-01988; -01376; +17988; +00000; +00072; +00198; -01430;
-02196; -01812; +17912; +00000; +00054; +00210; -01442;
-02372; -00196; +17704; +00000; +00055; +00196; -01443;
-01572; -00784; +18964; +00000; +00081; +00162; -01454;
-02328; -00832; +18776; +00000; +00096; +00223; -01455;
-02184; -01216; +17992; +00000; +00123; +00258; -01464;
-02048; +00196; +17232; +00000; +00135; +00205; -01462;
-02284; -02308; +19348; +00000; +00077; +00180; -01471;
-01660; -01108; +18412; +00000; +00031; +00220; -01487;
-02356; -00580; +19176; +00000; +00103; +00260; -01494;
-02388; -00356; +17564; +00000; +00233; +00261; -01499;
-01600; -00840; +18696; +00000; +00228; +00263; -01505;
-01792; -01772; +18816; +00000; +00098; +00289; -01502;
-02244; -01232; +18500; +00000; +00021; +00303; -01501;
-02928; -00824; +18944; +00000; +00079; +00314; -01505;
-03032; -00476; +18252; +00000; +00178; +00372; -01514;
-02192; -00016; +18328; +00000; +00216; +00407; -01516;
-02048; -00920; +18252; +00000; +00181; +00390; -01522;
-02292; -00340; +17932; +00000; +00124; +00369; -01512;
-01788; -00824; +19200; +00000; +00093; +00366; -01521;
-02932; -00164; +17876; +00000; +00124; +00390; -01517;
-02024; -01112; +18072; +00000; +00170; +00382; -01519;
-02320; -01332; +17912; +00000; +00159; +00310; -01536;
-02916; -00556; +17052; +00000; +00126; +00285; -01528;
-02848; -00748; +18772; +00000; +00110; +00263; -01531;
-03332; +00136; +18000; +00000; +00132; +00305; -01520;
-02720; -00104; +18100; +00000; +00148; +00303; -01520;
-02760; -00708; +17688; +00000; +00133; +00242; -01520;
-03284; -00320; +17800; +00000; +00082; +00154; -01505;
-02580; -00640; +18468; +00000; +00023; +00079; -01465;
-02604; -00444; +17932; +00000; +00031; +00032; -01317;
-02048; -00248; +17560; +00000; +00077; +00001; -01077;
-02952; -00432; +17428; +00000; +00070; -00006; -00884;
-03280; -00636; +18628; +00000; +00017; +00003; -00836;
-03472; -00752; +19140; +00000; -00032; +00004; -00916;
-03576; -00724; +18296; +00000; -00041; +00016; -01016;
-02212; -01132; +18780; +00000; -00036; +00017; -01107;
-03600; -01332; +18252; +00000; -00045; +00028; -01213;
-02148; -00644; +18628; +00000; -00051; +00045; -01300;
-01724; -00540; +19184; +00000; -00034; +00048; -01377;
-02488; -00040; +17684; +00000; +00001; +00107; -01422;
-02032; -00560; +18864; +00000; +00000; +00165; -01469;
-01700; -00424; +17712; +00000; -00042; +00241; -01500;
-01664; -00328; +18024; +00000; -00108; +00288; -01524;
-01572; +00020; +18040; +00000; -00157; +00355; -01532;
-01508; -00932; +17968; +00000; -00158; +00439; -01561;
-02640; -00076; +18612; +00000; -00120; +00508; -01572;
-02196; -01344; +18740; +00000; -00078; +00554; -01588;
-02320; -00384; +18696; +00000; -00078; +00542; -01600;
-02212; -00468; +19000; +00000; -00102; +00517; -01610;
-02624; -01392; +18972; +00000; -00132; +00469; -01628;
-02564; -00776; +18204; +00000; -00130; +00477; -01642;
-03040; -00740; +19496; +00000; -00074; +00470; -01659;
-04136; -00216; +18688; +00000; +00025; +00479; -01669;
-03124; -00016; +19352; +00000; +00122; +00441; -01682;
-03772; -01232; +17876; +00000; +00165; +00399; -01673;
-04516; -01672; +18924; +00000; +00082; +00356; -01664;
-03068; -01500; +19900; +00000; -00014; +00361; -01656;
-04120; -00488; +19260; +00000; +00029; +00364; -01649;
-02216; -00520; +18548; +00000; +00177; +00291; -01633;
-04160; -00596; +17464; +00000; +00251; +00213; -01542;
-04476; -00568; +18108; +00000; +00222; +00253; -01341;
-04368; -00260; +18232; +00000; +00194; +00289; -01120;
-04076; -01000; +17256; +00000; +00248; +00240; -01005;
-03704; -00308; +17264; +00000; +00252; +00170; -01017;
-03296; -00584; +18140; +00000; +00172; +00121; -01177;
-03248; -00464; +18476; +00000; +00107; +00088; -01332;
-03348; -00432; +17620; +00000; +00140; +00036; -01433;
-02424; +00072; +18472; +00000; +00184; -00039; -01522;
-03388; +00096; +18288; +00000; +00251; -00068; -01577;
-03560; -00552; +18020; +00000; +00307; -00099; -01613;
-02164; -00396; +18592; +00000; +00299; -00143; -01655;
-03488; -00820; +17440; +00000; +00270; -00160; -01681;
-02764; -00120; +17236; +00000; +00263; -00206; -01688;
-02316; -01476; +18480; +00000; +00257; -00205; -01713;
-02648; -00136; +18472; +00000; +00288; -00143; -01736;
-03708; +00420; +18392; +00000; +00379; -00099; -01736;
-03132; -00096; +16932; +00000; +00444; -00084; -01745;
-03004; -00556; +18296; +00000; +00377; -00106; -01751;
-02268; -00852; +18252; +00000; +00232; -00085; -01754;
-04200; +00056; +18160; +00000; +00183; -00040; -01748;
-03344; -00736; +18476; +00000; +00258; -00004; -01764;
-02964; +00464; +18476; +00000; +00344; -00006; -01779;
-03224; -01008; +17360; +00000; +00341; -00017; -01778;
-03660; -00660; +18288; +00000; +00260; -00086; -01768;
-03120; -00108; +19260; +00000; +00200; -00037; -01758;
-03604; +00012; +19344; +00000; +00253; +00006; -01765;
-03344; +00008; +16940; +00000; +00380; -00005; -01756;
-02844; -01024; +17060; +00000; +00374; -00060; -01758;
-04152; -00100; +17808; +00000; +00231; -00056; -01746;
-02656; -00292; +18972; +00000; +00141; -00014; -01749;
-03320; -00344; +18156; +00000; +00218; +00026; -01751;
-04124; -00132; +16680; +00000; +00294; +00066; -01740;
-02816; -00172; +18492; +00000; +00199; +00022; -01748;
-04256; -00500; +18312; +00000; +00034; -00023; -01742;
-03064; +00248; +18476; +00000; +00004; -00025; -01730;
-02960; -00644; +17836; +00000; +00106; -00004; -01744;
-03272; +00228; +16812; +00000; +00168; +00001; -01743;
-03272; -00544; +18580; +00000; +00096; -00056; -01741;
-04072; -00396; +18296; +00000; -00014; -00058; -01727;
-03100; -00844; +18200; +00000; -00040; -00013; -01731;
-03752; -00816; +16440; +00000; +00007; -00014; -01729;
-03672; +00120; +17508; +00000; -00002; -00019; -01721;
-03396; +00188; +18592; +00000; -00062; -00008; -01725;
-02860; -00004; +18160; +00000; -00079; +00010; -01722;
-03016; -00592; +17372; +00000; -00060; +00005; -01725;
-03124; -00548; +18504; +00000; -00088; +00057; -01725;
-03968; -00220; +19128; +00000; -00129; +00088; -01728;
-02760; +00544; +17416; +00000; -00117; +00070; -01718;
-02160; -00656; +19296; +00000; -00101; +00026; -01732;
-03900; +00756; +17528; +00000; -00070; +00025; -01719;
-03080; -00192; +18888; +00000; -00025; -00029; -01715;
-02976; -00756; +18828; +00000; -00023; -00094; -01727;
-03276; -01248; +18036; +00000; -00087; -00135; -01718;
-02292; -00760; +19716; +00000; -00156; -00220; -01732;
-03676; -00144; +19888; +00000; -00111; -00211; -01738;
-03848; +01016; +18968; +00000; +00038; -00143; -01737;
-03200; -00052; +18680; +00000; +00174; -00136; -01743;
-02864; -00952; +18160; +00000; +00176; -00170; -01741;
-03464; -00628; +19088; +00000; +00075; -00189; -01725;
-02824; -01272; +19020; +00000; +00025; -00190; -01719;
-03772; -00912; +19076; +00000; +00063; -00178; -01722;
-03460; -00300; +18692; +00000; +00122; -00136; -01733;
-02984; -00184; +19296; +00000; +00173; -00110; -01747;
-03664; +00144; +18316; +00000; +00253; -00109; -01753;
-03488; +00108; +17256; +00000; +00316; -00135; -01739;
-01872; -01168; +19132; +00000; +00249; -00118; -01743;
-03584; -00116; +19256; +00000; +00143; -00017; -01738;
-03244; -00556; +18284; +00000; +00165; -00010; -01732;
-01964; -00380; +18016; +00000; +00253; -00038; -01755;
-02868; +00128; +18164; +00000; +00251; +00054; -01756;
-02844; +00552; +18616; +00000; +00213; +00116; -01753;
-01704; +00196; +18168; +00000; +00259; +00109; -01757;
-03612; -00292; +17912; +00000; +00295; +00144; -01749;
-02868; +00064; +17636; +00000; +00206; +00202; -01735;
-03200; -00704; +19364; +00000; +00085; +00205; -01744;
-03208; +00280; +18816; +00000; +00081; +00233; -01744;
-02800; -00740; +18728; +00000; +00174; +00252; -01759;
-04420; +00136; +17168; +00000; +00257; +00249; -01760;
-02076; -00440; +16984; +00000; +00249; +00182; -01747;
-02772; -00852; +17256; +00000; +00139; +00147; -01740;
-04348; +00416; +17424; +00000; +00023; +00216; -01720;
-03096; -00012; +19728; +00000; +00021; +00265; -01721;
-03224; +00240; +18736; +00000; +00127; +00302; -01726;
-03692; -00452; +16120; +00000; +00210; +00276; -01723;
-03088; -00728; +16796; +00000; +00113; +00153; -01707;
-03324; -00664; +18640; +00000; -00058; +00161; -01685;
-03288; -00288; +19692; +00000; -00083; +00250; -01658;
-03844; -00300; +16928; +00000; +00054; +00261; -01652;
-03580; +00056; +16152; +00000; +00136; +00114; -01637;
-03292; -00420; +18256; +00000; +00014; -00003; -01554;
-03452; -00364; +20056; +00000; -00131; +00070; -01408;
-03840; -00220; +17996; +00000; -00103; +00125; -01285;
-03436; +00036; +17188; +00000; +00029; -00005; -01236;
-03824; -00044; +17776; +00000; +00050; -00098; -01247;
-03792; -00160; +19544; +00000; -00046; -00092; -01289;
-03288; -00384; +18888; +00000; -00080; -00092; -01346;
-03544; -00512; +18416; +00000; -00001; -00199; -01411;
-03528; -00600; +17664; +00000; +00076; -00270; -01450;
-03288; -00600; +18680; +00000; +00065; -00292; -01495;
-03772; +00396; +18384; +00000; +00058; -00298; -01519;
-03632; -01116; +18604; +00000; +00109; -00320; -01541;
-02956; +00988; +18196; +00000; +00192; -00331; -01557;
-02944; -00524; +18824; +00000; +00227; -00321; -01568;
-02964; -00432; +17940; +00000; +00192; -00352; -01567;
-03192; -01244; +18208; +00000; +00137; -00408; -01573;
-03104; -00672; +18624; +00000; +00135; -00436; -01572;
-02596; -00144; +18468; +00000; +00198; -00429; -01581;
-02272; -00120; +18292; +00000; +00280; -00436; -01589;
-02764; +00012; +18096; +00000; +00329; -00440; -01588;
-03644; -00308; +18728; +00000; +00340; -00400; -01572;
-02188; -00588; +18060; +00000; +00365; -00335; -01561;
-02432; -00936; +18064; +00000; +00350; -00359; -01559;
-02492; +00272; +18044; +00000; +00281; -00390; -01549;
-01784; -01064; +19896; +00000; +00255; -00385; -01555;
-02408; +00196; +19400; +00000; +00351; -00294; -01549;
-02124; +00584; +18492; +00000; +00502; -00255; -01539;
-02300; +00504; +17304; +00000; +00545; -00312; -01513;
-01888; -00928; +18224; +00000; +00464; -00322; -01483;
-02784; -00240; +18940; +00000; +00377; -00211; -01449;
-01756; -01088; +18232; +00000; +00371; -00126; -01439;
-02316; +00100; +16452; +00000; +00433; -00183; -01426;
-02024; -00464; +17204; +00000; +00431; -00183; -01400;
-01648; +00052; +19580; +00000; +00341; -00063; -01382;
-02700; +01564; +18404; +00000; +00337; +00090; -01350;
-02152; -00152; +16608; +00000; +00431; +00031; -01314;
-01864; -00648; +15872; +00000; +00435; -00044; -01279;
-02072; -00496; +17440; +00000; +00271; -00003; -01241;
-02416; +01052; +19264; +00000; +00069; +00095; -01219;
-02176; +00132; +19180; +00000; +00040; +00146; -01200;
-01672; -00184; +18468; +00000; +00154; +00067; -01188;
-03344; +00576; +16988; +00000; +00233; +00016; -01151;
-02020; +00460; +17276; +00000; +00194; -00024; -01136;
-00152; -00284; +16892; +00000; +00085; -00100; -01120;
-02484; +00244; +16528; +00000; -00020; -00096; -01096;
-01624; +00092; +16944; +00000; -00097; -00078; -01069;
-02528; +00900; +19332; +00000; -00121; -00033; -01067;
-02168; +00240; +17588; +00000; -00032; -00018; -01047;
-01256; -00764; +15712; +00000; +00005; -00152; -01050;
-01684; +00900; +16872; +00000; -00114; -00211; -01021;
-01412; -00176; +19688; +00000; -00305; -00153; -01010;
-01180; +00016; +19572; +00000; -00359; -00086; -01000;
-02596; +00172; +16128; +00000; -00243; -00150; -00983;
-00504; -00160; +17248; +00000; -00192; -00293; -00979;
-01164; +00192; +19184; +00000; -00283; -00321; -00981;
-01720; +00032; +19492; +00000; -00384; -00222; -00950;
-01036; +00328; +20012; +00000; -00363; -00205; -00949;
-00844; +00048; +18324; +00000; -00265; -00263; -00935;
-00676; +00112; +19000; +00000; -00266; -00323; -00935;
-01216; +00684; +19476; +00000; -00400; -00266; -00914;
-00152; -01788; +21160; +00000; -00491; -00186; -00923;
-01208; +00064; +20224; +00000; -00427; -00172; -00921;
-00852; +00232; +20160; +00000; -00301; -00180; -00926;
-00996; +00640; +18592; +00000; -00252; -00184; -00934;
-00520; -01088; +19204; +00000; -00265; -00161; -00926;
-01180; -00244; +20104; +00000; -00341; -00082; -00901;
-01828; +01180; +21416; +00000; -00387; +00069; -00891;
-00632; -00240; +19072; +00000; -00330; +00095; -00895;
-00840; -00732; +19364; +00000; -00279; +00039; -00891;
-01436; +00168; +20440; +00000; -00331; +00113; -00875;
-00416; -00064; +21240; +00000; -00381; +00250; -00888;
-01132; +00032; +18268; +00000; -00262; +00258; -00886;
-00948; -00572; +17920; +00000; -00149; +00190; -00861;
-02100; +00632; +18552; +00000; -00225; +00260; -00837;
-00720; -00184; +19936; +00000; -00357; +00396; -00836;
-00836; -00304; +19356; +00000; -00360; +00408; -00837;
-01216; +00600; +17964; +00000; -00287; +00400; -00828;
-00688; +00036; +19900; +00000; -00288; +00399; -00839;
-01908; +00684; +18804; +00000; -00317; +00419; -00830;
-00632; -01696; +19608; +00000; -00363; +00422; -00823;
-02068; -00268; +19504; +00000; -00410; +00420; -00819;
-02268; -00452; +18536; +00000; -00384; +00391; -00805;
-00624; -00656; +19612; +00000; -00318; +00309; -00820;
-02152; +00024; +18108; +00000; -00265; +00337; -00806;
-01400; -00488; +19112; +00000; -00272; +00345; -00803;
-01232; +00148; +18268; +00000; -00243; +00284; -00799;
-00668; -00404; +18364; +00000; -00214; +00268; -00786;
-01536; -00232; +18348; +00000; -00242; +00280; -00779;
-01192; -00608; +18064; +00000; -00268; +00296; -00771;
-01568; -00116; +19752; +00000; -00254; +00249; -00775;
-01404; -00216; +18316; +00000; -00206; +00252; -00772;
-01708; -00128; +19568; +00000; -00172; +00232; -00781;
-01548; +00064; +18980; +00000; -00134; +00187; -00781;
-01356; -00452; +20124; +00000; -00100; +00143; -00798;
-01888; +00404; +18172; +00000; -00044; +00146; -00784;
-00636; -00624; +19268; +00000; -00044; +00135; -00785;
-01048; -01032; +19064; +00000; -00084; +00125; -00789;
-01580; +00140; +18900; +00000; -00057; +00115; -00787;
-01264; +00060; +19044; +00000; +00043; +00125; -00786;
-00868; -00224; +18468; +00000; +00104; +00142; -00793;
-01236; -00488; +19044; +00000; +00076; +00126; -00781;
-00928; -00952; +19264; +00000; +00020; +00102; -00783;
-01348; +00484; +19288; +00000; +00042; +00119; -00780;
-00900; +00480; +18572; +00000; +00101; +00132; -00780;
-00136; +00520; +18680; +00000; +00151; +00102; -00783;
-00916; -00808; +18652; +00000; +00177; +00090; -00775;
-00800; +00104; +18884; +00000; +00147; +00085; -00774;
-00732; -00088; +18592; +00000; +00110; +00067; -00764;
-00528; -00328; +18120; +00000; +00116; -00007; -00754;
-01348; -01392; +18100; +00000; +00161; -00004; -00736;
-02024; -00232; +17536; +00000; +00182; +00050; -00716;
-00860; +01124; +17144; +00000; +00185; +00037; -00690;
-00416; -00328; +18748; +00000; +00157; -00016; -00670;
-01200; -01268; +17944; +00000; +00126; -00002; -00654;
-02080; +00284; +16660; +00000; +00116; +00024; -00619;
+00512; -01228; +18428; +00000; +00096; -00051; -00612;
-01112; +00600; +17236; +00000; +00057; -00099; -00582;
-00680; -00416; +18196; +00000; +00045; -00065; -00552;
-00124; -00148; +18260; +00000; +00091; -00059; -00540;
-01400; +00292; +17208; +00000; +00154; -00061; -00496;
-01100; -01048; +17416; +00000; +00100; -00111; -00461;
+00000; -00388; +18716; +00000; -00051; -00100; -00441;
-00604; -00704; +19060; +00000; -00109; -00060; -00417;
-00392; -00104; +17844; +00000; -00005; -00050; -00397;
+00148; -00476; +17620; +00000; +00102; -00054; -00385;
+00068; -00112; +18096; +00000; +00080; -00068; -00370;
+00024; +00032; +18572; +00000; -00026; -00049; -00340;
+00224; -00116; +19200; +00000; -00105; -00009; -00320;
+00052; -00240; +17996; +00000; -00069; +00017; -00305;
+00440; +00040; +17844; +00000; -00005; -00001; -00297;
+00260; -00376; +19336; +00000; -00021; +00024; -00286;
+00416; -01020; +18720; +00000; -00092; +00076; -00286;
-00064; -00084; +18500; +00000; -00094; +00061; -00269;
+01196; -00676; +18636; +00000; -00058; +00053; -00261;
+00292; -00128; +18812; +00000; -00053; +00148; -00252;
-00592; -00196; +17644; +00000; -00043; +00243; -00235;
+00644; -00336; +18200; +00000; -00002; +00228; -00221;
+00248; -00004; +17992; +00000; -00006; +00230; -00205;
+00192; -00448; +17864; +00000; -00097; +00270; -00193;
+00700; -00772; +19084; +00000; -00160; +00268; -00194;
-00864; -00172; +18140; +00000; -00114; +00266; -00185;
+00916; -00260; +19088; +00000; -00095; +00284; -00192;
-00404; +00164; +18628; +00000; -00167; +00274; -00199;
+00160; -00588; +18028; +00000; -00201; +00247; -00197;
-00308; -01020; +19312; +00000; -00169; +00212; -00200;
-00500; -00168; +18136; +00000; -00119; +00241; -00201;
-00004; +00108; +18324; +00000; -00121; +00229; -00198;
-00800; -00892; +18864; +00000; -00139; +00160; -00198;
-00224; -00752; +18840; +00000; -00132; +00153; -00192;
-00260; -00428; +18640; +00000; -00098; +00157; -00197;
-00244; +00088; +18208; +00000; -00047; +00082; -00193;
-00196; -00832; +18304; +00000; -00031; -00008; -00193;
-00592; +00060; +19156; +00000; -00051; -00035; -00185;
-00116; -00988; +19620; +00000; -00033; -00025; -00187;
-00424; -00712; +18316; +00000; +00032; -00070; -00187;
-00544; -00876; +17332; +00000; +00078; -00168; -00184;
+00096; -00988; +18748; +00000; +00052; -00277; -00186;
+00080; -00284; +18984; +00000; +00015; -00287; -00183;
-00064; -00116; +18248; +00000; +00049; -00279; -00176;
+00080; -01132; +17508; +00000; +00145; -00332; -00177;
+00244; -01104; +17092; +00000; +00156; -00366; -00173;
-00284; -00428; +19036; +00000; +00030; -00333; -00164;
+00204; -00588; +19204; +00000; -00052; -00276; -00163;
-00092; -00868; +18864; +00000; +00044; -00308; -00169;
+00736; -00748; +17652; +00000; +00190; -00381; -00168;
+00388; -01296; +18100; +00000; +00179; -00390; -00172;
+01052; -00324; +19068; +00000; +00090; -00341; -00160;
+00304; -00776; +20036; +00000; +00109; -00291; -00144;
+00876; -01456; +17944; +00000; +00230; -00257; -00134;
+00408; -00908; +17944; +00000; +00267; -00229; -00113;
+01400; -00536; +19092; +00000; +00228; -00187; -00098;
+01084; -00528; +18368; +00000; +00269; -00129; -00074;
+01140; -01036; +19336; +00000; +00405; -00049; -00056;
+00504; -00288; +17384; +00000; +00513; +00038; -00035;
+01176; -00516; +18264; +00000; +00519; +00085; -00008;
+00336; -01484; +17816; +00000; +00458; +00081; +00024;
-00392; -00964; +18036; +00000; +00412; +00127; +00075;
-01604; -01960; +18920; +00000; +00446; +00208; +00127;
-00700; -00764; +18376; +00000; +00536; +00304; +00257;
-00568; -00932; +16456; +00000; +00643; +00314; +00401;
+01148; -00716; +17764; +00000; +00612; +00237; +00530;
+01548; -01060; +17452; +00000; +00476; +00234; +00580;
+02048; +00164; +18980; +00000; +00388; +00242; +00542;
+02020; +00484; +18628; +00000; +00472; +00285; +00405;
+01452; +00400; +18140; +00000; +00650; +00294; +00193;
+00164; -00508; +16400; +00000; +00791; +00254; +00031;
+00756; -00340; +15580; +00000; +00765; +00170; +00011;
+00208; -01164; +17192; +00000; +00573; +00194; +00031;
-00568; -00580; +19072; +00000; +00400; +00303; +00029;
+01744; -01056; +17280; +00000; +00444; +00291; +00014;
+00672; +00024; +15824; +00000; +00608; +00090; +00003;
-00340; +00056; +15036; +00000; +00675; +00051; +00020;
+01248; -00720; +17688; +00000; +00549; +00162; +00006;
+01240; -00204; +16532; +00000; +00470; +00198; +00008;
-00320; -00812; +15580; +00000; +00469; +00091; +00019;
+00648; -00132; +15520; +00000; +00428; +00081; +00021;
+01160; -00472; +17024; +00000; +00364; +00123; -00014;
+00552; -00584; +15376; +00000; +00351; +00107; +00003;
+01464; -00536; +16684; +00000; +00265; +00079; -00008;
+00236; +00516; +17360; +00000; +00143; +00098; -00006;
+01352; -00640; +18180; +00000; +00095; +00112; -00022;
+00040; -00572; +18056; +00000; +00127; +00118; -00025;
+00380; -00716; +17996; +00000; +00165; +00167; -00030;
+00260; -00328; +17460; +00000; +00183; +00091; -00048;
+01028; -00208; +16884; +00000; +00184; -00030; -00045;
+01756; -01956; +18780; +00000; +00095; -00029; -00053;
+00068; -00332; +17468; +00000; +00026; +00095; -00050;
-00276; +00648; +17992; +00000; +00075; +00122; -00040;
+01536; -00708; +18096; +00000; +00187; +00065; -00045;
-00832; -00880; +17460; +00000; +00257; +00061; -00030;
+00864; -00036; +15900; +00000; +00164; +00086; -00009;
+01064; -01184; +18776; +00000; -00038; +00096; -00018;
-00480; -00804; +19448; +00000; -00140; +00176; -00002;
+00892; -01812; +19728; +00000; -00095; +00228; -00021;
-00764; +00824; +16100; +00000; +00048; +00192; -00014;
+00672; -00952; +17272; +00000; +00098; +00105; -00009;
+00920; -01452; +19420; +00000; -00008; +00086; -00019;
-00732; +00560; +18900; +00000; -00111; +00216; +00003;
+01440; -00308; +19464; +00000; -00118; +00210; +00003;
-00324; -01620; +17616; +00000; -00044; +00121; -00003;
+00308; -01312; +18404; +00000; -00019; +00106; +00010;
-00072; -00280; +19888; +00000; -00123; +00140; -00002;
+00200; -00664; +19404; +00000; -00173; +00190; +00001;
+00484; -01236; +17360; +00000; -00102; +00088; -00009;
+00696; -00444; +17576; +00000; +00002; +00014; +00001;
-00268; -00824; +19924; +00000; +00006; +00098; -00001;
+00032; -00180; +18324; +00000; -00002; +00192; +00000;
+00600; -01168; +17804; +00000; +00007; +00114; +00008;
+00020; -01712; +18756; +00000; -00080; +00031; +00003;
+00872; -00340; +20308; +00000; -00188; +00106; -00004;
+00340; -00484; +20180; +00000; -00096; +00155; -00029;
-00112; -00236; +16788; +00000; +00131; +00073; -00020;
+01420; -01644; +18184; +00000; +00169; +00027; -00038;
-00372; -00152; +18768; +00000; +00005; +00070; -00041;
-00600; -00900; +18812; +00000; -00107; +00125; -00041;
+01776; -01912; +20184; +00000; -00103; +00141; -00065;
+00092; -00456; +18856; +00000; -00004; +00148; -00081;
-00416; -00612; +17088; +00000; +00108; +00049; -00088;
-00052; -01432; +18572; +00000; +00092; -00024; -00103;
+00596; -00432; +19100; +00000; -00008; +00074; -00116;
+00116; -00628; +19016; +00000; -00068; +00091; -00115;
+00548; -01512; +17704; +00000; -00025; +00048; -00128;
+00028; -01300; +18268; +00000; +00045; +00031; -00146;
-00012; -01360; +18116; +00000; +00052; +00092; -00154;
+00008; -00612; +19456; +00000; +00009; +00135; -00166;
-00988; -00552; +18312; +00000; +00013; +00185; -00159;
+00868; -00908; +19664; +00000; +00067; +00170; -00173;
-00120; -01604; +18356; +00000; +00123; +00134; -00188;
+00260; -00340; +17244; +00000; +00127; +00120; -00180;
+01220; -01164; +18844; +00000; +00077; +00114; -00197;
-01360; -00564; +18964; +00000; +00073; +00160; -00200;
-00632; -00812; +17944; +00000; +00162; +00199; -00195;
+00688; +00040; +18556; +00000; +00255; +00164; -00214;
-00640; -00660; +16992; +00000; +00304; +00112; -00207;
-00088; -01596; +17400; +00000; +00202; +00074; -00211;
+00600; -01100; +18516; +00000; +00075; +00151; -00206;
-00268; -00384; +19092; +00000; +00078; +00228; -00201;
-00640; -00320; +17252; +00000; +00212; +00172; -00197;
+00344; -00800; +17204; +00000; +00309; +00097; -00195;
+00004; -01584; +19412; +00000; +00227; +00124; -00200;
-01348; -00532; +18084; +00000; +00144; +00187; -00189;
+00112; -01100; +17684; +00000; +00178; +00130; -00184;
+00688; -00860; +17780; +00000; +00233; +00046; -00196;
-00640; -00844; +18452; +00000; +00222; +00081; -00184;
-00780; -00536; +18532; +00000; +00196; +00112; -00185;
+00632; -01680; +16864; +00000; +00236; +00058; -00190;
+00520; -00716; +16204; +00000; +00242; -00019; -00196;
-01348; +00092; +16688; +00000; +00135; +00039; -00171;
+00260; -00380; +20320; +00000; +00024; +00172; -00180;
-00380; -00368; +18108; +00000; +00107; +00233; -00185;
+00760; -01440; +15836; +00000; +00271; +00123; -00185;
-00108; -00580; +16632; +00000; +00187; +00027; -00189;
-00548; -00016; +18236; +00000; -00065; +00118; -00180;
+00336; -01140; +20172; +00000; -00184; +00215; -00179;
+00152; -00544; +18724; +00000; -00043; +00229; -00185;
-00192; -00032; +15872; +00000; +00188; +00070; -00187;
-00064; -01092; +15828; +00000; +00212; -00085; -00188;
-00192; -01764; +19244; +00000; -00032; -00004; -00185;
-00128; -01032; +20952; +00000; -00231; +00191; -00184;
-00328; +00172; +17876; +00000; -00125; +00176; -00188;
+00756; -00492; +17600; +00000; +00141; -00003; -00198;
-00204; -01056; +18436; +00000; +00212; -00019; -00202;
-00456; -00888; +19116; +00000; +00071; +00120; -00194;
-00248; -00396; +18884; +00000; -00043; +00127; -00192;
+00484; -00992; +18588; +00000; -00025; +00026; -00196;
-00420; -01072; +19104; +00000; +00026; -00014; -00202;
-00580; -00172; +18308; +00000; +00076; +00051; -00197;
+00076; +00168; +18736; +00000; +00136; +00064; -00204;
-00088; -00208; +17840; +00000; +00180; +00036; -00194;
+00204; -00596; +19200; +00000; +00117; +00037; -00192;
-00060; +00528; +18224; +00000; +00025; +00090; -00189;
+00708; +00160; +19572; +00000; +00026; +00084; -00187;
-00240; -00076; +19724; +00000; +00100; +00078; -00192;
-00212; +01068; +19008; +00000; +00198; +00109; -00193;
-00424; +01224; +18556; +00000; +00296; +00069; -00189;
-00172; +00772; +17804; +00000; +00330; +00011; -00175;
+00452; +00056; +19864; +00000; +00254; +00002; -00164;
-00684; -00008; +18988; +00000; +00165; +00055; -00160;
+00640; +00096; +18556; +00000; +00176; -00005; -00163;
+00228; +00168; +18616; +00000; +00248; -00093; -00177;
-01056; +00392; +18324; +00000; +00284; -00055; -00167;
+00112; +00940; +18792; +00000; +00279; +00009; -00169;
-00476; +01360; +17736; +00000; +00312; -00022; -00165;
+00076; +00424; +17124; +00000; +00348; -00089; -00154;
-00188; +00296; +18084; +00000; +00270; -00091; -00147;
-00120; +00372; +18952; +00000; +00161; -00017; -00143;
+00024; +00428; +17972; +00000; +00153; -00025; -00133;
-00068; -00184; +18600; +00000; +00218; -00068; -00129;
-00608; +00028; +17640; +00000; +00223; -00058; -00125;
-01160; +01036; +17904; +00000; +00200; -00062; -00117;
+00304; +00704; +18116; +00000; +00165; -00108; -00107;
+00420; -00020; +18800; +00000; +00136; -00103; -00113;
-00352; +01368; +16976; +00000; +00147; -00098; -00094;
+00460; +00584; +17452; +00000; +00147; -00123; -00082;
+00148; -00504; +17732; +00000; +00075; -00116; -00079;
-00216; +00432; +18696; +00000; -00048; -00056; -00070;
+00204; +00904; +18900; +00000; -00091; -00025; -00072;
+00672; +00416; +17884; +00000; -00014; -00050; -00090;
-00928; +00076; +18468; +00000; +00067; -00085; -00080;
+00900; -00428; +17828; +00000; +00006; -00063; -00084;
+00144; +01452; +20080; +00000; -00102; -00029; -00093;
-00072; +00232; +17640; +00000; -00078; -00065; -00075;
+00176; +00172; +18960; +00000; -00030; -00101; -00094;
+00116; +01260; +18940; +00000; +00014; -00019; -00089;
-00460; +00412; +18308; +00000; +00057; -00025; -00098;
-00256; +00204; +17584; +00000; +00062; -00088; -00091;
+00860; -00160; +18688; +00000; -00016; -00066; -00102;
-00592; +01224; +18100; +00000; -00088; -00034; -00089;
+01056; +00284; +18864; +00000; -00086; -00029; -00091;
+00692; +00352; +19732; +00000; -00050; +00016; -00101;
-00432; +00800; +18680; +00000; +00031; +00018; -00107;
-00532; +01216; +18100; +00000; +00098; -00077; -00099;
+01540; -00100; +19384; +00000; +00062; -00089; -00106;
-00632; +00556; +19900; +00000; -00003; -00055; -00106;
-00184; +00816; +17876; +00000; +00015; -00058; -00088;
+00292; +00036; +19084; +00000; +00095; -00111; -00106;
-00348; +00468; +17600; +00000; +00157; -00107; -00095;
+00360; +00552; +19072; +00000; +00105; -00065; -00099;
+00132; +00456; +18940; +00000; +00065; -00028; -00102;
+00188; +00304; +17196; +00000; +00108; -00064; -00106;
-00108; +00196; +18160; +00000; +00154; -00113; -00097;
+00200; +01196; +17748; +00000; +00097; -00041; -00097;
+00272; +00876; +19144; +00000; +00068; +00023; -00091;
+00248; +00208; +17380; +00000; +00113; -00036; -00092;
+00500; +00740; +17848; +00000; +00128; -00054; -00089;
-00012; +00108; +18140; +00000; +00077; -00039; -00098;
+00248; +00940; +16880; +00000; +00060; -00075; -00092;
+00980; -00780; +18840; +00000; +00045; -00099; -00097;
-00548; +00976; +17948; +00000; +00024; -00031; -00098;
+00072; +00628; +17416; +00000; +00049; -00013; -00086;
+00212; +00576; +17792; +00000; +00073; -00067; -00085;
+00468; +00476; +18792; +00000; +00050; -00032; -00082;
+00296; +00688; +19096; +00000; +00006; +00001; -00077;
+00548; +00168; +18172; +00000; +00032; -00040; -00088;
+00616; +00276; +17172; +00000; +00085; -00099; -00090;
-00064; +00696; +19856; +00000; +00091; -00055; -00084;
+00044; +00548; +18608; +00000; +00068; +00041; -00081;
+00480; +00472; +18340; +00000; +00089; +00022; -00081;
-00104; -00248; +17136; +00000; +00121; -00056; -00072;
-00084; +00620; +18052; +00000; +00074; -00030; -00061;
+00772; +00380; +18860; +00000; +00034; +00053; -00058;
+00100; +00236; +17728; +00000; +00060; +00038; -00059;
+00024; -00080; +17392; +00000; +00091; -00003; -00049;
+00632; +00188; +19296; +00000; +00029; +00030; -00056;
-00420; +00980; +18900; +00000; +00022; +00092; -00049;
+00244; -00112; +19532; +00000; +00074; +00040; -00055;
-00256; +00444; +18140; +00000; +00141; +00005; -00053;
+01116; +00360; +18480; +00000; +00136; -00031; -00052;
-00080; -00544; +18020; +00000; +00075; -00044; -00047;
+00648; -00212; +17260; +00000; +00035; -00046; -00040;
-00256; +00020; +18196; +00000; +00015; -00010; -00035;
-00268; +00748; +17440; +00000; +00040; +00053; -00038;
+00952; +01172; +18892; +00000; +00078; +00073; -00044;
+00472; -00532; +17940; +00000; +00104; +00048; -00056;
+00632; -00080; +16312; +00000; +00046; +00011; -00042;
+00016; -00420; +19252; +00000; -00111; +00022; -00036;
+00792; +00328; +18712; +00000; -00203; +00092; -00033;
+00488; +00500; +19028; +00000; -00100; +00115; -00030;
+01092; +00904; +16884; +00000; +00071; +00077; -00026;
+00252; +00424; +19248; +00000; +00108; +00025; -00034;
+01312; +00852; +17116; +00000; +00012; +00047; -00019;
+00916; -00432; +19724; +00000; -00137; +00086; -00016;
+00088; +00248; +18032; +00000; -00214; +00144; -00007;
+00520; -00056; +18920; +00000; -00167; +00125; -00007;
+00932; +00188; +17988; +00000; -00089; +00087; -00010;
-00112; +00024; +18372; +00000; -00064; +00094; -00002;
-00228; +00436; +17772; +00000; -00128; +00083; +00013;
+01292; -00156; +19480; +00000; -00247; +00061; +00017;
+00464; -00544; +20440; +00000; -00311; +00038; +00013;
+00456; +00596; +18888; +00000; -00267; +00075; +00028;
-00208; -00060; +19292; +00000; -00156; +00056; +00021;
+00308; -00012; +17668; +00000; -00083; +00021; +00032;
-00300; -00588; +17484; +00000; -00127; -00017; +00032;
+00420; -00004; +18808; +00000; -00237; -00022; +00041;
+00228; -00540; +19344; +00000; -00272; -00010; +00025;
-00956; +00388; +18432; +00000; -00155; -00040; +00035;
+00856; -00220; +18172; +00000; -00044; -00100; +00027;
-00220; +00120; +18960; +00000; -00051; -00158; +00020;
+00564; -00568; +19084; +00000; -00149; -00143; +00032;
+00372; -00540; +19996; +00000; -00194; -00118; +00017;
+00808; -00832; +17932; +00000; -00110; -00121; +00027;
+01564; -00428; +17996; +00000; -00032; -00173; +00009;
+00764; +00380; +19040; +00000; -00046; -00127; +00014;
+00852; +00188; +20000; +00000; -00052; +00007; +00014;
+00884; -00340; +18044; +00000; +00032; +00066; +00017;
+01516; -00664; +17660; +00000; +00079; +00024; +00018;
+00672; +00044; +19012; +00000; -00022; +00022; +00014;
+00332; -00032; +19696; +00000; -00134; +00115; +00020;
+02120; -00344; +20348; +00000; -00100; +00214; -00002;
+00088; +00532; +18672; +00000; +00100; +00178; +00003;
+01020; -00648; +17204; +00000; +00254; +00081; -00001;
+00260; -00252; +18048; +00000; +00240; +00048; -00010;
+00392; +00148; +17556; +00000; +00154; +00153; +00016;
+00300; -00504; +19532; +00000; +00069; +00245; +00022;
+00196; -00064; +17336; +00000; +00084; +00294; +00032;
-00156; -00704; +19232; +00000; +00177; +00222; +00020;
+00196; -00172; +17908; +00000; +00252; +00171; +00024;
+00120; -00284; +19380; +00000; +00254; +00189; +00022;
+00292; -00068; +18220; +00000; +00232; +00178; +00032;
+00716; +00000; +19004; +00000; +00243; +00122; +00037;
+00448; -00416; +17872; +00000; +00282; +00127; +00045;
+00300; -00352; +17876; +00000; +00325; +00151; +00055;
+00712; -00628; +15604; +00000; +00345; +00119; +00066;
+00796; -00020; +16228; +00000; +00250; +00128; +00078;
+00800; -00604; +17820; +00000; +00115; +00242; +00084;
+00256; +00856; +17836; +00000; +00070; +00375; +00087;
+01248; +00564; +17520; +00000; +00152; +00406; +00090;
+00764; -00388; +17088; +00000; +00196; +00338; +00074;
+00224; -00536; +17208; +00000; +00127; +00310; +00086;
+00940; -01208; +18432; +00000; -00044; +00343; +00075;
+00668; -00228; +19464; +00000; -00139; +00399; +00072;
-00044; -00516; +18296; +00000; -00074; +00328; +00065;
+01060; +00092; +17868; +00000; +00073; +00204; +00057;
+00232; -00336; +17980; +00000; +00231; +00108; +00039;
+00016; +00952; +17840; +00000; +00311; +00108; +00059;
+00884; -00504; +19356; +00000; +00322; +00122; +00048;
+00920; -00512; +16064; +00000; +00287; +00075; +00055;
+00692; -00904; +18024; +00000; +00223; -00008; +00054;
+00300; -00456; +17864; +00000; +00095; +00046; +00052;
-00136; -00496; +19676; +00000; +00068; +00171; +00045;
+00192; -00200; +17044; +00000; +00174; +00179; +00043;
+00292; +00000; +17864; +00000; +00275; +00143; +00038;
+00120; -00436; +17816; +00000; +00261; +00123; +00047;
+00336; +00200; +18576; +00000; +00170; +00147; +00056;
-00024; -01100; +18600; +00000; +00147; +00150; +00066;
+00640; -01104; +17544; +00000; +00189; +00069; +00050;
-00084; -00420; +17044; +00000; +00264; -00096; +00035;
-00056; -00492; +18020; +00000; +00261; -00195; +00017;
+00792; +00432; +19460; +00000; +00242; -00149; +00003;
-00312; -00076; +18420; +00000; +00333; -00167; -00002;
-00288; -00204; +16756; +00000; +00432; -00239; +00011;
+00208; -00120; +18384; +00000; +00427; -00259; +00009;
+00192; +00036; +17992; +00000; +00385; -00241; +00014;
+00768; -00740; +18524; +00000; +00386; -00249; +00006;
+00756; -00624; +17468; +00000; +00410; -00253; -00004;
-00124; -00604; +17208; +00000; +00426; -00260; -00004;
+00340; -00308; +18144; +00000; +00397; -00213; -00006;
+00368; -00320; +18816; +00000; +00366; -00109; -00007;
+00672; +00244; +17668; +00000; +00414; -00084; +00000;
+00556; +00668; +17024; +00000; +00458; -00115; +00016;
+01256; -00844; +17952; +00000; +00379; -00087; +00018;
+00560; +00428; +18756; +00000; +00248; -00013; +00028;
+01080; -00432; +17456; +00000; +00196; +00040; +00020;
+01200; +00888; +17092; +00000; +00239; +00024; +00012;
+01528; -00592; +18168; +00000; +00271; +00042; +00007;
-01712; +00916; +18636; +00000; +00245; +00117; +00013;
+00628; +00892; +15616; +00000; +00245; +00174; +00047;
+01148; -00956; +18140; +00000; +00184; +00027; +00019;
+00364; -00084; +16344; +00000; +00068; -00002; +00060;
+01040; -00788; +20080; +00000; -00094; +00073; +00034;
+00140; +01328; +16252; +00000; -00054; +00140; +00049;
-00244; -00528; +16968; +00000; +00103; +00025; +00042;
+00084; +00836; +17984; +00000; +00078; -00001; +00056;
+00748; +00140; +18924; +00000; -00094; +00115; +00039;
+01040; +00908; +16972; +00000; -00157; +00075; +00044;
+01600; -01380; +18744; +00000; -00124; -00051; +00050;
-00780; -00620; +18568; +00000; -00168; +00005; +00076;
+01280; +00128; +18984; +00000; -00188; +00115; +00072;
+00016; +00176; +17116; +00000; -00138; +00000; +00066;
-00092; -00068; +17792; +00000; -00141; -00069; +00092;
+00956; -01460; +20920; +00000; -00245; +00040; +00074;
-00120; +01252; +18128; +00000; -00230; +00085; +00079;
+01404; -00680; +17728; +00000; -00156; -00077; +00080;
+00908; -00588; +19288; +00000; -00233; -00113; +00076;
+01148; -00716; +21076; +00000; -00312; +00015; +00073;
+00220; +01076; +19684; +00000; -00245; +00012; +00079;
+00636; -00504; +18128; +00000; -00144; -00058; +00078;
+00644; -00408; +19860; +00000; -00180; -00061; +00078;
+00684; -00648; +19988; +00000; -00262; +00021; +00077;
+00940; -00040; +19228; +00000; -00273; +00026; +00072;
+00656; -00636; +18336; +00000; -00216; -00024; +00066;
+00404; -01040; +20388; +00000; -00179; -00029; +00063;
+00960; -00324; +20152; +00000; -00134; +00052; +00056;
-00292; +00556; +18440; +00000; -00083; +00014; +00055;
+01068; -00168; +19556; +00000; -00084; -00071; +00055;
+00992; -00832; +21036; +00000; -00151; -00073; +00037;
+00776; -00436; +19736; +00000; -00125; -00014; +00036;
+00856; +00536; +17796; +00000; -00003; -00059; +00031;
+00864; -00532; +18784; +00000; +00064; -00114; +00022;
-00120; -00436; +19160; +00000; +00032; -00057; +00026;
+00328; -00688; +19360; +00000; -00005; +00033; +00031;
+00076; -00028; +17748; +00000; +00022; +00021; +00026;
+00576; -01004; +18064; +00000; +00053; -00067; +00018;
+00344; +00324; +18604; +00000; -00008; -00092; +00012;
+00776; -00036; +19948; +00000; -00054; +00036; +00018;
+01460; -00556; +20348; +00000; +00006; +00105; +00002;
-00336; +00544; +16308; +00000; +00147; +00040; +00011;
+00836; -00140; +17312; +00000; +00117; -00013; +00030;
+01480; -01668; +20864; +00000; -00073; +00082; +00010;
-00468; +00700; +17944; +00000; -00104; +00192; +00032;
+01720; -00600; +18092; +00000; +00043; +00162; +00025;
+00300; -00216; +17360; +00000; +00158; +00132; +00019;
+00428; -00796; +17540; +00000; +00127; +00166; +00031;
-00012; -00332; +17992; +00000; -00048; +00167; +00031;
+00048; -00556; +18180; +00000; -00167; +00240; +00039;
+00556; -00468; +19068; +00000; -00124; +00246; +00028;
+00164; -00236; +17768; +00000; +00060; +00157; +00022;
-00448; -00076; +17356; +00000; +00195; +00059; +00027;
-00316; -00632; +17380; +00000; +00166; +00007; +00032;
+00672; -00520; +18456; +00000; +00071; -00013; +00040;
-00144; -00584; +20292; +00000; +00064; -00033; +00036;
-00260; +00148; +18280; +00000; +00199; -00089; +00035;
+00684; -00144; +18636; +00000; +00352; -00170; +00016;
-00028; -00472; +18244; +00000; +00441; -00225; +00013;
+00240; -00384; +17524; +00000; +00438; -00217; +00027;
+00644; -00488; +18252; +00000; +00394; -00206; +00030;
+00300; -00720; +18004; +00000; +00405; -00202; +00044;
+01204; -00800; +18192; +00000; +00475; -00186; +00047;
+00908; +00084; +17140; +00000; +00542; -00158; +00055;
+01788; +00392; +17432; +00000; +00501; -00093; +00066;
+02180; -00708; +19212; +00000; +00384; +00007; +00056;
+01064; +00032; +18716; +00000; +00338; +00160; +00075;
+02192; -01292; +18320; +00000; +00399; +00283; +00073;
+02604; +00924; +16420; +00000; +00464; +00322; +00078;
+01264; +00060; +17672; +00000; +00449; +00326; +00094;
+01456; +00128; +17568; +00000; +00365; +00459; +00115;
+01584; -00344; +18192; +00000; +00401; +00659; +00125;
-00468; -00564; +15528; +00000; +00586; +00678; +00191;
-05200; -03196; +12272; +00000; +00690; +00616; +00357;
-01576; +00032; +16376; +00000; +00460; +00733; +00726;
+02196; +00344; +17896; +00000; +00062; +00973; +01116;
+03404; +01168; +17220; +00000; -00275; +01136; +01259;
+01672; +00864; +16616; +00000; -00461; +01182; +01117;
+01764; +01016; +18052; +00000; -00596; +01108; +00831;
+00964; +01580; +17868; +00000; -00652; +00966; +00542;
-01220; +00100; +17876; +00000; -00539; +00746; +00301;
-00256; +00912; +17328; +00000; -00346; +00459; +00213;
+04928; +01892; +20116; +00000; -00143; +00070; +00129;
+03808; +00432; +17356; +00000; +00167; -00390; -00242;
+01132; +00352; +16640; +00000; +00517; -00763; -00788;
+00260; -00456; +17512; +00000; +00809; -00995; -01317;
-00052; +00844; +17676; +00000; +00957; -01018; -01652;
-03340; -00356; +16352; +00000; +00862; -00958; -01842;
-03296; -02048; +15280; +00000; +00513; -00955; -01862;
-02096; -01580; +15952; +00000; +00064; -00993; -01566;
+00924; -02116; +18680; +00000; -00294; -00964; -01120;
+01988; +00680; +19676; +00000; -00433; -00730; -00689;
+01580; +02040; +19652; +00000; -00247; -00460; -00471;
+00980; -00152; +17644; +00000; +00039; -00427; -00329;
-00760; -02140; +13712; +00000; +00111; -00521; -00134;
+00688; +00288; +18916; +00000; -00316; -00581; +00163;
+02000; -00180; +22264; +00000; -00789; -00360; +00493;
+02376; -00948; +23084; +00000; -00832; -00102; +00593;
+01788; +00476; +19748; +00000; -00500; -00097; +00598;
+01212; -00044; +18516; +00000; -00202; -00302; +00537;
+01120; -00100; +22044; +00000; -00254; -00382; +00487;
-02852; -00172; +25724; +00000; -00439; -00154; +00382;
+01640; +01516; +22176; +00000; -00335; +00072; +00348;
+01012; -03088; +21328; +00000; -00156; -00144; +00245;
-00588; -00872; +16496; +00000; -00213; -00278; +00271;
+00204; -01640; +20276; +00000; -00449; -00265; +00208;
+00384; +02064; +19768; +00000; -00466; -00092; +00198;
+01716; -01592; +23656; +00000; -00192; +00189; +00114;
+01844; +01352; +18376; +00000; +00206; +00189; +00047;
-00504; -01000; +15828; +00000; +00346; +00008; -00087;
+00408; -00088; +19056; +00000; +00055; -00187; -00195;
+01948; -01776; +22396; +00000; -00258; -00062; -00127;
+00060; +00352; +22144; +00000; -00235; +00211; -00030;
+01708; +00760; +19836; +00000; +00157; +00194; +00001;
+00208; +00068; +13596; +00000; +00524; -00180; +00040;
+01928; -01100; +16492; +00000; +00427; -00427; +00099;
+01836; -01296; +19752; +00000; +00029; -00237; +00131;
+00788; +00724; +20556; +00000; -00137; +00058; +00119;
+00536; +01492; +17184; +00000; +00139; +00021; +00117;
+01660; -01760; +17348; +00000; +00481; -00220; +00101;
+01184; +00324; +15128; +00000; +00513; -00305; +00094;
+00384; -00116; +18704; +00000; +00202; -00171; +00112;
+02068; -00696; +18780; +00000; -00090; -00035; +00099;
+00380; -00644; +19916; +00000; -00108; -00018; +00094;
+00936; +00112; +16672; +00000; +00080; -00078; +00097;
+01816; +00252; +17916; +00000; +00224; -00119; +00061;
+00796; -00056; +16584; +00000; +00270; -00123; +00062;
+00776; -00512; +19076; +00000; +00204; -00054; +00070;
+00404; +00316; +17868; +00000; +00133; +00032; +00080;
+01464; -00344; +17324; +00000; +00134; -00067; +00078;
+01152; -00904; +17368; +00000; +00127; -00155; +00077;
+00888; -00488; +19508; +00000; +00109; -00041; +00077;
+00308; +00492; +17648; +00000; +00157; +00010; +00068;
+01100; +00144; +16780; +00000; +00258; -00082; +00068;
+01000; -00100; +18076; +00000; +00217; -00153; +00065;
+00936; +00024; +19120; +00000; +00110; -00060; +00072;
+00776; -00208; +18672; +00000; +00111; -00011; +00058;
+00716; -00588; +17952; +00000; +00240; -00054; +00060;
+00688; -01476; +17280; +00000; +00280; -00104; +00053;
+00508; +00644; +17876; +00000; +00177; -00070; +00057;
+01352; +00488; +19520; +00000; +00103; +00006; +00053;
+01364; -00140; +19516; +00000; +00184; +00120; +00055;
+01276; -00368; +18244; +00000; +00378; +00158; +00054;
+01104; -00044; +16728; +00000; +00491; +00097; +00058;
+01152; +00056; +17108; +00000; +00383; +00095; +00066;
+00848; -00284; +19164; +00000; +00170; +00212; +00079;
+01080; -00648; +17392; +00000; +00092; +00347; +00074;
+01288; -00320; +17588; +00000; +00226; +00355; +00068;
+00312; -00248; +16048; +00000; +00397; +00315; +00077;
+00812; -00256; +16684; +00000; +00421; +00302; +00079;
+00444; +00200; +17476; +00000; +00278; +00353; +00101;
+00476; -00372; +18880; +00000; +00125; +00423; +00090;
+00632; +00504; +18344; +00000; +00119; +00399; +00094;
+00992; -00588; +18408; +00000; +00220; +00332; +00072;
-00636; +00536; +17412; +00000; +00318; +00269; +00084;
+01136; -00820; +18220; +00000; +00305; +00216; +00069;
-00300; +00336; +17388; +00000; +00256; +00167; +00070;
+00044; -00080; +18664; +00000; +00241; +00155; +00081;
+01188; -00212; +18056; +00000; +00274; +00137; +00064;
-00172; +00280; +16160; +00000; +00359; +00084; +00069;
+01096; -00052; +16788; +00000; +00375; +00005; +00079;
+00676; -00484; +17992; +00000; +00241; +00067; +00072;
+00120; +00288; +17600; +00000; +00156; +00162; +00076;
+00844; -00480; +16988; +00000; +00185; +00090; +00074;
+01260; +00068; +17000; +00000; +00198; +00062; +00074;
-00020; -00120; +18516; +00000; +00137; +00125; +00080;
+01412; +00228; +17512; +00000; +00083; +00153; +00082;
+00968; -00628; +17260; +00000; +00070; +00102; +00074;
+00248; -00224; +17428; +00000; +00011; +00081; +00079;
+01348; +00084; +19116; +00000; -00081; +00133; +00066;
+01100; +00168; +18636; +00000; -00080; +00148; +00050;
-00084; +00520; +18268; +00000; +00017; +00104; +00054;
+01464; -00424; +18376; +00000; +00029; +00068; +00043;
+00124; +00280; +18352; +00000; -00041; +00068; +00039;
+01056; +00152; +18636; +00000; -00094; +00066; +00051;
+00484; -00276; +19564; +00000; -00109; +00072; +00039;
+00196; +00324; +18868; +00000; -00078; +00091; +00034;
+00880; +00288; +19824; +00000; -00042; +00082; +00032;
+00544; -00288; +18300; +00000; -00033; +00117; +00028;
+00484; +00836; +18368; +00000; -00035; +00145; +00044;
+00976; -00676; +19456; +00000; -00084; +00150; +00046;
+00892; +00272; +19692; +00000; -00104; +00209; +00052;
+00604; +00716; +18724; +00000; -00022; +00259; +00061;
+00676; +00456; +18272; +00000; +00062; +00253; +00073;
+00704; -00068; +19596; +00000; +00019; +00262; +00067;
+00524; +00844; +19516; +00000; -00050; +00316; +00082;
+00980; +00296; +19716; +00000; -00026; +00302; +00073;
+00044; +00348; +18208; +00000; +00034; +00271; +00069;
